# Results on Thursday April 19 2018 21:04:36 UTC.
# USER AGENT: Mozilla/5.0 (Macintosh; Intel Mac OS X 10_12_6) AppleWebKit/537.36 (KHTML, like Gecko) Chrome/65.0.3325.181 Safari/537.36
# Design number was non-random = 74
#
# Columns below this comment are as follows:
# 1. Time results were received.
# 2. MD5 hash of participant's IP address.
# 3. Controller name.
# 4. Item number.
# 5. Element number.
# 6. Type.
# 7. Group.
# 8. Field name.
# 9. Field value.
1524171877,c5b2f3e71d43b91b072e71332491aecf,Form,2,0,consent,NULL,subject_id,A1LOUZD99NZCT2
1524171877,c5b2f3e71d43b91b072e71332491aecf,Form,2,0,consent,NULL,native_lang,english
1524171877,c5b2f3e71d43b91b072e71332491aecf,Form,2,0,consent,NULL,age,29
1524171877,c5b2f3e71d43b91b072e71332491aecf,Form,2,0,consent,NULL,consent_checkbox_,yes
1524171877,c5b2f3e71d43b91b072e71332491aecf,Form,2,0,consent,NULL,dummy_checkbox_,yes
1524171877,c5b2f3e71d43b91b072e71332491aecf,Form,2,0,consent,NULL,sex,male
1524171877,c5b2f3e71d43b91b072e71332491aecf,Form,2,0,consent,NULL,_REACTION_TIME_,20121
1524171877,c5b2f3e71d43b91b072e71332491aecf,Form,1,0,instructions,NULL,dummy_checkbox_,yes
1524171877,c5b2f3e71d43b91b072e71332491aecf,Form,1,0,instructions,NULL,_REACTION_TIME_,1504
1524171877,c5b2f3e71d43b91b072e71332491aecf,Form,4,0,train,NULL,train_m_A_chosen,no
1524171877,c5b2f3e71d43b91b072e71332491aecf,Form,4,0,train,NULL,train_m_B_chosen,yes
1524171877,c5b2f3e71d43b91b072e71332491aecf,Form,4,0,train,NULL,train_m_C_chosen,yes
1524171877,c5b2f3e71d43b91b072e71332491aecf,Form,4,0,train,NULL,none_chosen,no
1524171877,c5b2f3e71d43b91b072e71332491aecf,Form,4,0,train,NULL,_REACTION_TIME_,11924
1524171877,c5b2f3e71d43b91b072e71332491aecf,Form,3,0,train,NULL,train_f_A_chosen,yes
1524171877,c5b2f3e71d43b91b072e71332491aecf,Form,3,0,train,NULL,train_f_B_chosen,no
1524171877,c5b2f3e71d43b91b072e71332491aecf,Form,3,0,train,NULL,train_f_C_chosen,no
1524171877,c5b2f3e71d43b91b072e71332491aecf,Form,3,0,train,NULL,none_chosen,no
1524171877,c5b2f3e71d43b91b072e71332491aecf,Form,3,0,train,NULL,_REACTION_TIME_,7041
1524171877,c5b2f3e71d43b91b072e71332491aecf,Form,5,0,train_end,NULL,dummy_checkbox_,yes
1524171877,c5b2f3e71d43b91b072e71332491aecf,Form,5,0,train_end,NULL,_REACTION_TIME_,2125
1524171877,c5b2f3e71d43b91b072e71332491aecf,Form,8,0,high,NULL,answers_reported,placeholderInspector 1 says%2C "Restaurants A and B."%2CInspector 2 says%2C "Restaurant E."%2CInspector 3 says%2C "Restaurants A%2C B%2C C%2C D%2C and E."
1524171877,c5b2f3e71d43b91b072e71332491aecf,Form,8,0,high,NULL,inspector_A_chosen,no
1524171877,c5b2f3e71d43b91b072e71332491aecf,Form,8,0,high,NULL,inspector_B_chosen,yes
1524171877,c5b2f3e71d43b91b072e71332491aecf,Form,8,0,high,NULL,inspector_C_chosen,yes
1524171877,c5b2f3e71d43b91b072e71332491aecf,Form,8,0,high,NULL,no_one_chosen,no
1524171877,c5b2f3e71d43b91b072e71332491aecf,Form,8,0,high,NULL,_REACTION_TIME_,3397
1524171877,c5b2f3e71d43b91b072e71332491aecf,Form,17,0,low,NULL,answers_reported,placeholderBrother 1 says%2C "Stall C."%2CBrother 2 says%2C "Stalls C and D."%2CBrother 3 says%2C "Stalls A and B."
1524171877,c5b2f3e71d43b91b072e71332491aecf,Form,17,0,low,NULL,brother_A_chosen,yes
1524171877,c5b2f3e71d43b91b072e71332491aecf,Form,17,0,low,NULL,brother_B_chosen,no
1524171877,c5b2f3e71d43b91b072e71332491aecf,Form,17,0,low,NULL,brother_C_chosen,no
1524171877,c5b2f3e71d43b91b072e71332491aecf,Form,17,0,low,NULL,no_one_chosen,no
1524171877,c5b2f3e71d43b91b072e71332491aecf,Form,17,0,low,NULL,_REACTION_TIME_,1717
1524171877,c5b2f3e71d43b91b072e71332491aecf,Form,25,0,nst,NULL,NST_4a_chosen,no
1524171877,c5b2f3e71d43b91b072e71332491aecf,Form,25,0,nst,NULL,NST_4b_chosen,yes
1524171877,c5b2f3e71d43b91b072e71332491aecf,Form,25,0,nst,NULL,_REACTION_TIME_,4567
1524171877,c5b2f3e71d43b91b072e71332491aecf,Form,18,0,control,NULL,why_A_chosen,no
1524171877,c5b2f3e71d43b91b072e71332491aecf,Form,18,0,control,NULL,why_B_chosen,yes
1524171877,c5b2f3e71d43b91b072e71332491aecf,Form,18,0,control,NULL,why_C_chosen,yes
1524171877,c5b2f3e71d43b91b072e71332491aecf,Form,18,0,control,NULL,none_chosen,no
1524171877,c5b2f3e71d43b91b072e71332491aecf,Form,18,0,control,NULL,_REACTION_TIME_,1855
1524171877,c5b2f3e71d43b91b072e71332491aecf,Form,12,0,high,NULL,answers_reported,placeholderInvestigator 1 says%2C "Place D."%2CInvestigator 2 says%2C "Places F and A."%2CInvestigator 3 says%2C "Place E."
1524171877,c5b2f3e71d43b91b072e71332491aecf,Form,12,0,high,NULL,fbi_investigator_A_chosen,no
1524171877,c5b2f3e71d43b91b072e71332491aecf,Form,12,0,high,NULL,fbi_investigator_B_chosen,no
1524171877,c5b2f3e71d43b91b072e71332491aecf,Form,12,0,high,NULL,fbi_investigator_C_chosen,yes
1524171877,c5b2f3e71d43b91b072e71332491aecf,Form,12,0,high,NULL,no_one_chosen,no
1524171877,c5b2f3e71d43b91b072e71332491aecf,Form,12,0,high,NULL,_REACTION_TIME_,1945
1524171877,c5b2f3e71d43b91b072e71332491aecf,Form,16,0,low,NULL,answers_reported,placeholderCoworker 1 says%2C "Studios F%2C E%2C D%2C C and B."%2CCoworker 2 says%2C "Studios C and B."%2CCoworker 3 says%2C "Studio F."
1524171877,c5b2f3e71d43b91b072e71332491aecf,Form,16,0,low,NULL,yoga_coworker_A_chosen,yes
1524171877,c5b2f3e71d43b91b072e71332491aecf,Form,16,0,low,NULL,yoga_coworker_B_chosen,no
1524171877,c5b2f3e71d43b91b072e71332491aecf,Form,16,0,low,NULL,yoga_coworker_C_chosen,yes
1524171877,c5b2f3e71d43b91b072e71332491aecf,Form,16,0,low,NULL,no_one_chosen,no
1524171877,c5b2f3e71d43b91b072e71332491aecf,Form,16,0,low,NULL,_REACTION_TIME_,1945
1524171877,c5b2f3e71d43b91b072e71332491aecf,Form,24,0,nst,NULL,NST_3a_chosen,no
1524171877,c5b2f3e71d43b91b072e71332491aecf,Form,24,0,nst,NULL,NST_3b_chosen,yes
1524171877,c5b2f3e71d43b91b072e71332491aecf,Form,24,0,nst,NULL,NST_3c_chosen,no
1524171877,c5b2f3e71d43b91b072e71332491aecf,Form,24,0,nst,NULL,NST_3d_chosen,no
1524171877,c5b2f3e71d43b91b072e71332491aecf,Form,24,0,nst,NULL,NST_3e_chosen,no
1524171877,c5b2f3e71d43b91b072e71332491aecf,Form,24,0,nst,NULL,_REACTION_TIME_,3070
1524171877,c5b2f3e71d43b91b072e71332491aecf,Form,20,0,control,NULL,when_A_chosen,no
1524171877,c5b2f3e71d43b91b072e71332491aecf,Form,20,0,control,NULL,when_B_chosen,yes
1524171877,c5b2f3e71d43b91b072e71332491aecf,Form,20,0,control,NULL,when_C_chosen,no
1524171877,c5b2f3e71d43b91b072e71332491aecf,Form,20,0,control,NULL,none_chosen,no
1524171877,c5b2f3e71d43b91b072e71332491aecf,Form,20,0,control,NULL,_REACTION_TIME_,2823
1524171877,c5b2f3e71d43b91b072e71332491aecf,Form,9,0,high,NULL,answers_reported,placeholderFirefighter 1 says%2C "The fourth and sixth floors."%2CFirefighter 2 says%2C "The fifth and second floors."%2CFirefighter 3 says%2C "The fifth%2C second%2C fourth%2C third and sixth floors."
1524171877,c5b2f3e71d43b91b072e71332491aecf,Form,9,0,high,NULL,firefighter_A_chosen,no
1524171877,c5b2f3e71d43b91b072e71332491aecf,Form,9,0,high,NULL,firefighter_B_chosen,no
1524171877,c5b2f3e71d43b91b072e71332491aecf,Form,9,0,high,NULL,firefighter_C_chosen,yes
1524171877,c5b2f3e71d43b91b072e71332491aecf,Form,9,0,high,NULL,no_one_chosen,no
1524171877,c5b2f3e71d43b91b072e71332491aecf,Form,9,0,high,NULL,_REACTION_TIME_,2238
1524171877,c5b2f3e71d43b91b072e71332491aecf,Form,13,0,low,NULL,answers_reported,placeholderCousin 1 says%2C "Locations A and D."%2CCousin 2 says%2C "Location A."%2CCousin 3 says%2C "Location F."
1524171877,c5b2f3e71d43b91b072e71332491aecf,Form,13,0,low,NULL,pic_cousin_A_chosen,yes
1524171877,c5b2f3e71d43b91b072e71332491aecf,Form,13,0,low,NULL,pic_cousin_B_chosen,yes
1524171877,c5b2f3e71d43b91b072e71332491aecf,Form,13,0,low,NULL,pic_cousin_C_chosen,no
1524171877,c5b2f3e71d43b91b072e71332491aecf,Form,13,0,low,NULL,no_one_chosen,no
1524171877,c5b2f3e71d43b91b072e71332491aecf,Form,13,0,low,NULL,_REACTION_TIME_,3260
1524171877,c5b2f3e71d43b91b072e71332491aecf,Form,11,0,high,NULL,answers_reported,placeholderAdvisor 1 says%2C "Store F."%2CAdvisor 2 says%2C "Stores A and F."%2CAdvisor 3 says%2C "Store E."
1524171877,c5b2f3e71d43b91b072e71332491aecf,Form,11,0,high,NULL,terrorism_advisor_A_chosen,no
1524171877,c5b2f3e71d43b91b072e71332491aecf,Form,11,0,high,NULL,terrorism_advisor_B_chosen,no
1524171877,c5b2f3e71d43b91b072e71332491aecf,Form,11,0,high,NULL,terrorism_advisor_C_chosen,yes
1524171877,c5b2f3e71d43b91b072e71332491aecf,Form,11,0,high,NULL,no_one_chosen,no
1524171877,c5b2f3e71d43b91b072e71332491aecf,Form,11,0,high,NULL,_REACTION_TIME_,2193
1524171877,c5b2f3e71d43b91b072e71332491aecf,Form,23,0,nst,NULL,NST_2a_chosen,no
1524171877,c5b2f3e71d43b91b072e71332491aecf,Form,23,0,nst,NULL,NST_2b_chosen,no
1524171877,c5b2f3e71d43b91b072e71332491aecf,Form,23,0,nst,NULL,NST_2c_chosen,yes
1524171877,c5b2f3e71d43b91b072e71332491aecf,Form,23,0,nst,NULL,NST_2d_chosen,no
1524171877,c5b2f3e71d43b91b072e71332491aecf,Form,23,0,nst,NULL,NST_2e_chosen,no
1524171877,c5b2f3e71d43b91b072e71332491aecf,Form,23,0,nst,NULL,_REACTION_TIME_,3633
1524171877,c5b2f3e71d43b91b072e71332491aecf,Form,21,0,control,NULL,how_guest_A_chosen,no
1524171877,c5b2f3e71d43b91b072e71332491aecf,Form,21,0,control,NULL,how_guest_B_chosen,no
1524171877,c5b2f3e71d43b91b072e71332491aecf,Form,21,0,control,NULL,how_guest_C_chosen,yes
1524171877,c5b2f3e71d43b91b072e71332491aecf,Form,21,0,control,NULL,none_chosen,no
1524171877,c5b2f3e71d43b91b072e71332491aecf,Form,21,0,control,NULL,_REACTION_TIME_,1404
1524171877,c5b2f3e71d43b91b072e71332491aecf,Form,15,0,low,NULL,answers_reported,placeholderClassmate 1 says%2C "Cafes E%2C B%2C F%2C C and D."%2CClassmate 2 says%2C "Cafe E."%2CClassmate 3 says%2C "Cafes F and D."
1524171877,c5b2f3e71d43b91b072e71332491aecf,Form,15,0,low,NULL,coffee_classmate_A_chosen,yes
1524171877,c5b2f3e71d43b91b072e71332491aecf,Form,15,0,low,NULL,coffee_classmate_B_chosen,no
1524171877,c5b2f3e71d43b91b072e71332491aecf,Form,15,0,low,NULL,coffee_classmate_C_chosen,yes
1524171877,c5b2f3e71d43b91b072e71332491aecf,Form,15,0,low,NULL,no_one_chosen,no
1524171877,c5b2f3e71d43b91b072e71332491aecf,Form,15,0,low,NULL,_REACTION_TIME_,3982
1524171877,c5b2f3e71d43b91b072e71332491aecf,Form,10,0,high,NULL,answers_reported,placeholderOperative 1 says%2C "The Northeast district."%2COperative 2 says%2C "The Northeast and Southwest districts."%2COperative 3 says%2C "The South and North districts."
1524171877,c5b2f3e71d43b91b072e71332491aecf,Form,10,0,high,NULL,operative_A_chosen,no
1524171877,c5b2f3e71d43b91b072e71332491aecf,Form,10,0,high,NULL,operative_B_chosen,yes
1524171877,c5b2f3e71d43b91b072e71332491aecf,Form,10,0,high,NULL,operative_C_chosen,yes
1524171877,c5b2f3e71d43b91b072e71332491aecf,Form,10,0,high,NULL,no_one_chosen,no
1524171877,c5b2f3e71d43b91b072e71332491aecf,Form,10,0,high,NULL,_REACTION_TIME_,2136
1524171877,c5b2f3e71d43b91b072e71332491aecf,Form,14,0,low,NULL,answers_reported,placeholderFriend 1 says%2C "Diner C."%2CFriend 2 says%2C "Diners A and E."%2CFriend 3 says%2C "Diner E."
1524171877,c5b2f3e71d43b91b072e71332491aecf,Form,14,0,low,NULL,la_friend_A_chosen,no
1524171877,c5b2f3e71d43b91b072e71332491aecf,Form,14,0,low,NULL,la_friend_B_chosen,no
1524171877,c5b2f3e71d43b91b072e71332491aecf,Form,14,0,low,NULL,la_friend_C_chosen,no
1524171877,c5b2f3e71d43b91b072e71332491aecf,Form,14,0,low,NULL,no_one_chosen,yes
1524171877,c5b2f3e71d43b91b072e71332491aecf,Form,14,0,low,NULL,_REACTION_TIME_,3598
1524171877,c5b2f3e71d43b91b072e71332491aecf,Form,22,0,nst,NULL,NST_1a_chosen,yes
1524171877,c5b2f3e71d43b91b072e71332491aecf,Form,22,0,nst,NULL,NST_1b_chosen,no
1524171877,c5b2f3e71d43b91b072e71332491aecf,Form,22,0,nst,NULL,NST_1c_chosen,no
1524171877,c5b2f3e71d43b91b072e71332491aecf,Form,22,0,nst,NULL,NST_1d_chosen,yes
1524171877,c5b2f3e71d43b91b072e71332491aecf,Form,22,0,nst,NULL,_REACTION_TIME_,10057
1524171877,c5b2f3e71d43b91b072e71332491aecf,Form,19,0,control,NULL,what_A_chosen,no
1524171877,c5b2f3e71d43b91b072e71332491aecf,Form,19,0,control,NULL,what_B_chosen,yes
1524171877,c5b2f3e71d43b91b072e71332491aecf,Form,19,0,control,NULL,what_C_chosen,yes
1524171877,c5b2f3e71d43b91b072e71332491aecf,Form,19,0,control,NULL,none_chosen,no
1524171877,c5b2f3e71d43b91b072e71332491aecf,Form,19,0,control,NULL,_REACTION_TIME_,1934
1524171877,c5b2f3e71d43b91b072e71332491aecf,Form,6,0,exit_quest,NULL,know_conditons,the cabinet
1524171877,c5b2f3e71d43b91b072e71332491aecf,Form,6,0,exit_quest,NULL,know_conditons,the coffee shop
1524171877,c5b2f3e71d43b91b072e71332491aecf,Form,6,0,exit_quest,NULL,difficult,no
1524171877,c5b2f3e71d43b91b072e71332491aecf,Form,6,0,exit_quest,NULL,anything_else,no
1524171877,c5b2f3e71d43b91b072e71332491aecf,Form,6,0,exit_quest,NULL,dummy_checkbox_,yes
1524171877,c5b2f3e71d43b91b072e71332491aecf,Form,6,0,exit_quest,NULL,_REACTION_TIME_,42897
#
# Results on Thursday April 19 2018 21:06:48 UTC.
# USER AGENT: Mozilla/5.0 (Windows NT 10.0; Win64; x64) AppleWebKit/537.36 (KHTML, like Gecko) Chrome/65.0.3325.181 Safari/537.36
# Design number was non-random = 74
#
# Columns below this comment are as follows:
# 1. Time results were received.
# 2. MD5 hash of participant's IP address.
# 3. Controller name.
# 4. Item number.
# 5. Element number.
# 6. Type.
# 7. Group.
# 8. Field name.
# 9. Field value.
1524172009,173fd226b9032c695d69a00b1ba3605f,Form,2,0,consent,NULL,subject_id,A2YVC1U50H2B4R
1524172009,173fd226b9032c695d69a00b1ba3605f,Form,2,0,consent,NULL,native_lang,English
1524172009,173fd226b9032c695d69a00b1ba3605f,Form,2,0,consent,NULL,age,29
1524172009,173fd226b9032c695d69a00b1ba3605f,Form,2,0,consent,NULL,consent_checkbox_,yes
1524172009,173fd226b9032c695d69a00b1ba3605f,Form,2,0,consent,NULL,dummy_checkbox_,yes
1524172009,173fd226b9032c695d69a00b1ba3605f,Form,2,0,consent,NULL,sex,female
1524172009,173fd226b9032c695d69a00b1ba3605f,Form,2,0,consent,NULL,_REACTION_TIME_,45290
1524172009,173fd226b9032c695d69a00b1ba3605f,Form,1,0,instructions,NULL,dummy_checkbox_,yes
1524172009,173fd226b9032c695d69a00b1ba3605f,Form,1,0,instructions,NULL,_REACTION_TIME_,1125
1524172009,173fd226b9032c695d69a00b1ba3605f,Form,3,0,train,NULL,train_f_A_chosen,no
1524172009,173fd226b9032c695d69a00b1ba3605f,Form,3,0,train,NULL,train_f_B_chosen,no
1524172009,173fd226b9032c695d69a00b1ba3605f,Form,3,0,train,NULL,train_f_C_chosen,no
1524172009,173fd226b9032c695d69a00b1ba3605f,Form,3,0,train,NULL,none_chosen,yes
1524172009,173fd226b9032c695d69a00b1ba3605f,Form,3,0,train,NULL,_REACTION_TIME_,14596
1524172009,173fd226b9032c695d69a00b1ba3605f,Form,4,0,train,NULL,train_m_A_chosen,no
1524172009,173fd226b9032c695d69a00b1ba3605f,Form,4,0,train,NULL,train_m_B_chosen,no
1524172009,173fd226b9032c695d69a00b1ba3605f,Form,4,0,train,NULL,train_m_C_chosen,yes
1524172009,173fd226b9032c695d69a00b1ba3605f,Form,4,0,train,NULL,none_chosen,no
1524172009,173fd226b9032c695d69a00b1ba3605f,Form,4,0,train,NULL,_REACTION_TIME_,7497
1524172009,173fd226b9032c695d69a00b1ba3605f,Form,5,0,train_end,NULL,dummy_checkbox_,yes
1524172009,173fd226b9032c695d69a00b1ba3605f,Form,5,0,train_end,NULL,_REACTION_TIME_,1407
1524172009,173fd226b9032c695d69a00b1ba3605f,Form,14,0,low,NULL,answers_reported,placeholderFriend 1 says%2C "Diners C and F."%2CFriend 2 says%2C "Diners A and E."%2CFriend 3 says%2C "Diner C."
1524172009,173fd226b9032c695d69a00b1ba3605f,Form,14,0,low,NULL,la_friend_A_chosen,yes
1524172009,173fd226b9032c695d69a00b1ba3605f,Form,14,0,low,NULL,la_friend_B_chosen,no
1524172009,173fd226b9032c695d69a00b1ba3605f,Form,14,0,low,NULL,la_friend_C_chosen,no
1524172009,173fd226b9032c695d69a00b1ba3605f,Form,14,0,low,NULL,no_one_chosen,no
1524172009,173fd226b9032c695d69a00b1ba3605f,Form,14,0,low,NULL,_REACTION_TIME_,23638
1524172009,173fd226b9032c695d69a00b1ba3605f,Form,8,0,high,NULL,answers_reported,placeholderInspector 1 says%2C "Restaurant E."%2CInspector 2 says%2C "Restaurants A%2C B%2C C%2C D%2C and E."%2CInspector 3 says%2C "Restaurants C and E."
1524172009,173fd226b9032c695d69a00b1ba3605f,Form,8,0,high,NULL,inspector_A_chosen,no
1524172009,173fd226b9032c695d69a00b1ba3605f,Form,8,0,high,NULL,inspector_B_chosen,no
1524172009,173fd226b9032c695d69a00b1ba3605f,Form,8,0,high,NULL,inspector_C_chosen,no
1524172009,173fd226b9032c695d69a00b1ba3605f,Form,8,0,high,NULL,no_one_chosen,yes
1524172009,173fd226b9032c695d69a00b1ba3605f,Form,8,0,high,NULL,_REACTION_TIME_,29257
1524172009,173fd226b9032c695d69a00b1ba3605f,Form,24,0,nst,NULL,NST_3a_chosen,no
1524172009,173fd226b9032c695d69a00b1ba3605f,Form,24,0,nst,NULL,NST_3b_chosen,no
1524172009,173fd226b9032c695d69a00b1ba3605f,Form,24,0,nst,NULL,NST_3c_chosen,no
1524172009,173fd226b9032c695d69a00b1ba3605f,Form,24,0,nst,NULL,NST_3d_chosen,no
1524172009,173fd226b9032c695d69a00b1ba3605f,Form,24,0,nst,NULL,NST_3e_chosen,yes
1524172009,173fd226b9032c695d69a00b1ba3605f,Form,24,0,nst,NULL,_REACTION_TIME_,6817
1524172009,173fd226b9032c695d69a00b1ba3605f,Form,16,0,low,NULL,answers_reported,placeholderCoworker 1 says%2C "Studios C and B."%2CCoworker 2 says%2C "Studios F and E."%2CCoworker 3 says%2C "Studios F%2C E%2C D%2C C and B."
1524172009,173fd226b9032c695d69a00b1ba3605f,Form,16,0,low,NULL,yoga_coworker_A_chosen,no
1524172009,173fd226b9032c695d69a00b1ba3605f,Form,16,0,low,NULL,yoga_coworker_B_chosen,yes
1524172009,173fd226b9032c695d69a00b1ba3605f,Form,16,0,low,NULL,yoga_coworker_C_chosen,no
1524172009,173fd226b9032c695d69a00b1ba3605f,Form,16,0,low,NULL,no_one_chosen,no
1524172009,173fd226b9032c695d69a00b1ba3605f,Form,16,0,low,NULL,_REACTION_TIME_,6987
1524172009,173fd226b9032c695d69a00b1ba3605f,Form,18,0,control,NULL,why_A_chosen,yes
1524172009,173fd226b9032c695d69a00b1ba3605f,Form,18,0,control,NULL,why_B_chosen,no
1524172009,173fd226b9032c695d69a00b1ba3605f,Form,18,0,control,NULL,why_C_chosen,no
1524172009,173fd226b9032c695d69a00b1ba3605f,Form,18,0,control,NULL,none_chosen,no
1524172009,173fd226b9032c695d69a00b1ba3605f,Form,18,0,control,NULL,_REACTION_TIME_,19369
1524172009,173fd226b9032c695d69a00b1ba3605f,Form,9,0,high,NULL,answers_reported,placeholderFirefighter 1 says%2C "The fifth floor."%2CFirefighter 2 says%2C "The fourth and sixth floors."%2CFirefighter 3 says%2C "The fifth and second floors."
1524172009,173fd226b9032c695d69a00b1ba3605f,Form,9,0,high,NULL,firefighter_A_chosen,yes
1524172009,173fd226b9032c695d69a00b1ba3605f,Form,9,0,high,NULL,firefighter_B_chosen,no
1524172009,173fd226b9032c695d69a00b1ba3605f,Form,9,0,high,NULL,firefighter_C_chosen,no
1524172009,173fd226b9032c695d69a00b1ba3605f,Form,9,0,high,NULL,no_one_chosen,no
1524172009,173fd226b9032c695d69a00b1ba3605f,Form,9,0,high,NULL,_REACTION_TIME_,19820
1524172009,173fd226b9032c695d69a00b1ba3605f,Form,25,0,nst,NULL,NST_4a_chosen,no
1524172009,173fd226b9032c695d69a00b1ba3605f,Form,25,0,nst,NULL,NST_4b_chosen,yes
1524172009,173fd226b9032c695d69a00b1ba3605f,Form,25,0,nst,NULL,_REACTION_TIME_,3978
1524172009,173fd226b9032c695d69a00b1ba3605f,Form,13,0,low,NULL,answers_reported,placeholderCousin 1 says%2C "Location F."%2CCousin 2 says%2C "Locations A%2C D%2C E%2C and F."%2CCousin 3 says%2C "Location A."
1524172009,173fd226b9032c695d69a00b1ba3605f,Form,13,0,low,NULL,pic_cousin_A_chosen,no
1524172009,173fd226b9032c695d69a00b1ba3605f,Form,13,0,low,NULL,pic_cousin_B_chosen,no
1524172009,173fd226b9032c695d69a00b1ba3605f,Form,13,0,low,NULL,pic_cousin_C_chosen,yes
1524172009,173fd226b9032c695d69a00b1ba3605f,Form,13,0,low,NULL,no_one_chosen,no
1524172009,173fd226b9032c695d69a00b1ba3605f,Form,13,0,low,NULL,_REACTION_TIME_,8408
1524172009,173fd226b9032c695d69a00b1ba3605f,Form,20,0,control,NULL,when_A_chosen,no
1524172009,173fd226b9032c695d69a00b1ba3605f,Form,20,0,control,NULL,when_B_chosen,no
1524172009,173fd226b9032c695d69a00b1ba3605f,Form,20,0,control,NULL,when_C_chosen,no
1524172009,173fd226b9032c695d69a00b1ba3605f,Form,20,0,control,NULL,none_chosen,yes
1524172009,173fd226b9032c695d69a00b1ba3605f,Form,20,0,control,NULL,_REACTION_TIME_,11051
1524172009,173fd226b9032c695d69a00b1ba3605f,Form,11,0,high,NULL,answers_reported,placeholderAdvisor 1 says%2C "Stores E and B."%2CAdvisor 2 says%2C "Stores A and F."%2CAdvisor 3 says%2C "Store F."
1524172009,173fd226b9032c695d69a00b1ba3605f,Form,11,0,high,NULL,terrorism_advisor_A_chosen,yes
1524172009,173fd226b9032c695d69a00b1ba3605f,Form,11,0,high,NULL,terrorism_advisor_B_chosen,no
1524172009,173fd226b9032c695d69a00b1ba3605f,Form,11,0,high,NULL,terrorism_advisor_C_chosen,no
1524172009,173fd226b9032c695d69a00b1ba3605f,Form,11,0,high,NULL,no_one_chosen,no
1524172009,173fd226b9032c695d69a00b1ba3605f,Form,11,0,high,NULL,_REACTION_TIME_,5587
1524172009,173fd226b9032c695d69a00b1ba3605f,Form,17,0,low,NULL,answers_reported,placeholderBrother 1 says%2C "Stalls C%2C D%2C A%2C F and B."%2CBrother 2 says%2C "Stalls A and B."%2CBrother 3 says%2C "Stall B."
1524172009,173fd226b9032c695d69a00b1ba3605f,Form,17,0,low,NULL,brother_A_chosen,no
1524172009,173fd226b9032c695d69a00b1ba3605f,Form,17,0,low,NULL,brother_B_chosen,no
1524172009,173fd226b9032c695d69a00b1ba3605f,Form,17,0,low,NULL,brother_C_chosen,no
1524172009,173fd226b9032c695d69a00b1ba3605f,Form,17,0,low,NULL,no_one_chosen,yes
1524172009,173fd226b9032c695d69a00b1ba3605f,Form,17,0,low,NULL,_REACTION_TIME_,5432
1524172009,173fd226b9032c695d69a00b1ba3605f,Form,23,0,nst,NULL,NST_2a_chosen,yes
1524172009,173fd226b9032c695d69a00b1ba3605f,Form,23,0,nst,NULL,NST_2b_chosen,no
1524172009,173fd226b9032c695d69a00b1ba3605f,Form,23,0,nst,NULL,NST_2c_chosen,no
1524172009,173fd226b9032c695d69a00b1ba3605f,Form,23,0,nst,NULL,NST_2d_chosen,no
1524172009,173fd226b9032c695d69a00b1ba3605f,Form,23,0,nst,NULL,NST_2e_chosen,no
1524172009,173fd226b9032c695d69a00b1ba3605f,Form,23,0,nst,NULL,_REACTION_TIME_,9191
1524172009,173fd226b9032c695d69a00b1ba3605f,Form,12,0,high,NULL,answers_reported,placeholderInvestigator 1 says%2C "Place E."%2CInvestigator 2 says%2C "Places B and E."%2CInvestigator 3 says%2C "Places F and A."
1524172009,173fd226b9032c695d69a00b1ba3605f,Form,12,0,high,NULL,fbi_investigator_A_chosen,no
1524172009,173fd226b9032c695d69a00b1ba3605f,Form,12,0,high,NULL,fbi_investigator_B_chosen,no
1524172009,173fd226b9032c695d69a00b1ba3605f,Form,12,0,high,NULL,fbi_investigator_C_chosen,yes
1524172009,173fd226b9032c695d69a00b1ba3605f,Form,12,0,high,NULL,no_one_chosen,no
1524172009,173fd226b9032c695d69a00b1ba3605f,Form,12,0,high,NULL,_REACTION_TIME_,5087
1524172009,173fd226b9032c695d69a00b1ba3605f,Form,19,0,control,NULL,what_A_chosen,yes
1524172009,173fd226b9032c695d69a00b1ba3605f,Form,19,0,control,NULL,what_B_chosen,no
1524172009,173fd226b9032c695d69a00b1ba3605f,Form,19,0,control,NULL,what_C_chosen,no
1524172009,173fd226b9032c695d69a00b1ba3605f,Form,19,0,control,NULL,none_chosen,no
1524172009,173fd226b9032c695d69a00b1ba3605f,Form,19,0,control,NULL,_REACTION_TIME_,14512
1524172009,173fd226b9032c695d69a00b1ba3605f,Form,15,0,low,NULL,answers_reported,placeholderClassmate 1 says%2C "Cafes F and D."%2CClassmate 2 says%2C "Cafe D."%2CClassmate 3 says%2C "Cafe E."
1524172009,173fd226b9032c695d69a00b1ba3605f,Form,15,0,low,NULL,coffee_classmate_A_chosen,no
1524172009,173fd226b9032c695d69a00b1ba3605f,Form,15,0,low,NULL,coffee_classmate_B_chosen,no
1524172009,173fd226b9032c695d69a00b1ba3605f,Form,15,0,low,NULL,coffee_classmate_C_chosen,yes
1524172009,173fd226b9032c695d69a00b1ba3605f,Form,15,0,low,NULL,no_one_chosen,no
1524172009,173fd226b9032c695d69a00b1ba3605f,Form,15,0,low,NULL,_REACTION_TIME_,4055
1524172009,173fd226b9032c695d69a00b1ba3605f,Form,10,0,high,NULL,answers_reported,placeholderOperative 1 says%2C "The South and North districts."%2COperative 2 says%2C "The Northeast and Southwest districts."%2COperative 3 says%2C "The North district."
1524172009,173fd226b9032c695d69a00b1ba3605f,Form,10,0,high,NULL,operative_A_chosen,no
1524172009,173fd226b9032c695d69a00b1ba3605f,Form,10,0,high,NULL,operative_B_chosen,yes
1524172009,173fd226b9032c695d69a00b1ba3605f,Form,10,0,high,NULL,operative_C_chosen,no
1524172009,173fd226b9032c695d69a00b1ba3605f,Form,10,0,high,NULL,no_one_chosen,no
1524172009,173fd226b9032c695d69a00b1ba3605f,Form,10,0,high,NULL,_REACTION_TIME_,6676
1524172009,173fd226b9032c695d69a00b1ba3605f,Form,22,0,nst,NULL,NST_1a_chosen,yes
1524172009,173fd226b9032c695d69a00b1ba3605f,Form,22,0,nst,NULL,NST_1b_chosen,no
1524172009,173fd226b9032c695d69a00b1ba3605f,Form,22,0,nst,NULL,NST_1c_chosen,no
1524172009,173fd226b9032c695d69a00b1ba3605f,Form,22,0,nst,NULL,NST_1d_chosen,no
1524172009,173fd226b9032c695d69a00b1ba3605f,Form,22,0,nst,NULL,_REACTION_TIME_,7398
1524172009,173fd226b9032c695d69a00b1ba3605f,Form,21,0,control,NULL,how_guest_A_chosen,no
1524172009,173fd226b9032c695d69a00b1ba3605f,Form,21,0,control,NULL,how_guest_B_chosen,no
1524172009,173fd226b9032c695d69a00b1ba3605f,Form,21,0,control,NULL,how_guest_C_chosen,yes
1524172009,173fd226b9032c695d69a00b1ba3605f,Form,21,0,control,NULL,none_chosen,no
1524172009,173fd226b9032c695d69a00b1ba3605f,Form,21,0,control,NULL,_REACTION_TIME_,9439
1524172009,173fd226b9032c695d69a00b1ba3605f,Form,6,0,exit_quest,NULL,know_conditons,At the coffee shop
1524172009,173fd226b9032c695d69a00b1ba3605f,Form,6,0,exit_quest,NULL,know_conditons,At the cafe
1524172009,173fd226b9032c695d69a00b1ba3605f,Form,6,0,exit_quest,NULL,difficult,No.. it seemed fairly common sense
1524172009,173fd226b9032c695d69a00b1ba3605f,Form,6,0,exit_quest,NULL,anything_else,
1524172009,173fd226b9032c695d69a00b1ba3605f,Form,6,0,exit_quest,NULL,dummy_checkbox_,yes
1524172009,173fd226b9032c695d69a00b1ba3605f,Form,6,0,exit_quest,NULL,_REACTION_TIME_,19463
#
# Results on Thursday April 19 2018 21:07:52 UTC.
# USER AGENT: Mozilla/5.0 (X11; CrOS x86_64 10323.67.0) AppleWebKit/537.36 (KHTML, like Gecko) Chrome/65.0.3325.209 Safari/537.36
# Design number was non-random = 74
#
# Columns below this comment are as follows:
# 1. Time results were received.
# 2. MD5 hash of participant's IP address.
# 3. Controller name.
# 4. Item number.
# 5. Element number.
# 6. Type.
# 7. Group.
# 8. Field name.
# 9. Field value.
1524172073,f9d5cfda7f04b556778b047637d86e1a,Form,2,0,consent,NULL,subject_id,A2QWERWB75X8YU
1524172073,f9d5cfda7f04b556778b047637d86e1a,Form,2,0,consent,NULL,native_lang,english
1524172073,f9d5cfda7f04b556778b047637d86e1a,Form,2,0,consent,NULL,age,28
1524172073,f9d5cfda7f04b556778b047637d86e1a,Form,2,0,consent,NULL,consent_checkbox_,yes
1524172073,f9d5cfda7f04b556778b047637d86e1a,Form,2,0,consent,NULL,dummy_checkbox_,yes
1524172073,f9d5cfda7f04b556778b047637d86e1a,Form,2,0,consent,NULL,sex,female
1524172073,f9d5cfda7f04b556778b047637d86e1a,Form,2,0,consent,NULL,_REACTION_TIME_,17736
1524172073,f9d5cfda7f04b556778b047637d86e1a,Form,1,0,instructions,NULL,dummy_checkbox_,yes
1524172073,f9d5cfda7f04b556778b047637d86e1a,Form,1,0,instructions,NULL,_REACTION_TIME_,10650
1524172073,f9d5cfda7f04b556778b047637d86e1a,Form,3,0,train,NULL,train_f_A_chosen,no
1524172073,f9d5cfda7f04b556778b047637d86e1a,Form,3,0,train,NULL,train_f_B_chosen,no
1524172073,f9d5cfda7f04b556778b047637d86e1a,Form,3,0,train,NULL,train_f_C_chosen,no
1524172073,f9d5cfda7f04b556778b047637d86e1a,Form,3,0,train,NULL,none_chosen,yes
1524172073,f9d5cfda7f04b556778b047637d86e1a,Form,3,0,train,NULL,_REACTION_TIME_,26617
1524172073,f9d5cfda7f04b556778b047637d86e1a,Form,4,0,train,NULL,train_m_A_chosen,no
1524172073,f9d5cfda7f04b556778b047637d86e1a,Form,4,0,train,NULL,train_m_B_chosen,no
1524172073,f9d5cfda7f04b556778b047637d86e1a,Form,4,0,train,NULL,train_m_C_chosen,yes
1524172073,f9d5cfda7f04b556778b047637d86e1a,Form,4,0,train,NULL,none_chosen,no
1524172073,f9d5cfda7f04b556778b047637d86e1a,Form,4,0,train,NULL,_REACTION_TIME_,17643
1524172073,f9d5cfda7f04b556778b047637d86e1a,Form,5,0,train_end,NULL,dummy_checkbox_,yes
1524172073,f9d5cfda7f04b556778b047637d86e1a,Form,5,0,train_end,NULL,_REACTION_TIME_,1725
1524172073,f9d5cfda7f04b556778b047637d86e1a,Form,11,0,high,NULL,answers_reported,placeholderAdvisor 1 says%2C "Store F."%2CAdvisor 2 says%2C "Stores E and B."%2CAdvisor 3 says%2C "Stores A and F."
1524172073,f9d5cfda7f04b556778b047637d86e1a,Form,11,0,high,NULL,terrorism_advisor_A_chosen,no
1524172073,f9d5cfda7f04b556778b047637d86e1a,Form,11,0,high,NULL,terrorism_advisor_B_chosen,yes
1524172073,f9d5cfda7f04b556778b047637d86e1a,Form,11,0,high,NULL,terrorism_advisor_C_chosen,no
1524172073,f9d5cfda7f04b556778b047637d86e1a,Form,11,0,high,NULL,no_one_chosen,no
1524172073,f9d5cfda7f04b556778b047637d86e1a,Form,11,0,high,NULL,_REACTION_TIME_,24581
1524172073,f9d5cfda7f04b556778b047637d86e1a,Form,13,0,low,NULL,answers_reported,placeholderCousin 1 says%2C "Locations A and D."%2CCousin 2 says%2C "Locations D and F."%2CCousin 3 says%2C "Location F."
1524172073,f9d5cfda7f04b556778b047637d86e1a,Form,13,0,low,NULL,pic_cousin_A_chosen,yes
1524172073,f9d5cfda7f04b556778b047637d86e1a,Form,13,0,low,NULL,pic_cousin_B_chosen,no
1524172073,f9d5cfda7f04b556778b047637d86e1a,Form,13,0,low,NULL,pic_cousin_C_chosen,no
1524172073,f9d5cfda7f04b556778b047637d86e1a,Form,13,0,low,NULL,no_one_chosen,no
1524172073,f9d5cfda7f04b556778b047637d86e1a,Form,13,0,low,NULL,_REACTION_TIME_,12479
1524172073,f9d5cfda7f04b556778b047637d86e1a,Form,25,0,nst,NULL,NST_4a_chosen,no
1524172073,f9d5cfda7f04b556778b047637d86e1a,Form,25,0,nst,NULL,NST_4b_chosen,yes
1524172073,f9d5cfda7f04b556778b047637d86e1a,Form,25,0,nst,NULL,_REACTION_TIME_,4653
1524172073,f9d5cfda7f04b556778b047637d86e1a,Form,10,0,high,NULL,answers_reported,placeholderOperative 1 says%2C "The Northeast%2C Southwest%2C South%2C Southeast and North districts."%2COperative 2 says%2C "The Northeast district."%2COperative 3 says%2C "The South and North districts."
1524172073,f9d5cfda7f04b556778b047637d86e1a,Form,10,0,high,NULL,operative_A_chosen,yes
1524172073,f9d5cfda7f04b556778b047637d86e1a,Form,10,0,high,NULL,operative_B_chosen,no
1524172073,f9d5cfda7f04b556778b047637d86e1a,Form,10,0,high,NULL,operative_C_chosen,no
1524172073,f9d5cfda7f04b556778b047637d86e1a,Form,10,0,high,NULL,no_one_chosen,no
1524172073,f9d5cfda7f04b556778b047637d86e1a,Form,10,0,high,NULL,_REACTION_TIME_,18754
1524172073,f9d5cfda7f04b556778b047637d86e1a,Form,19,0,control,NULL,what_A_chosen,yes
1524172073,f9d5cfda7f04b556778b047637d86e1a,Form,19,0,control,NULL,what_B_chosen,yes
1524172073,f9d5cfda7f04b556778b047637d86e1a,Form,19,0,control,NULL,what_C_chosen,no
1524172073,f9d5cfda7f04b556778b047637d86e1a,Form,19,0,control,NULL,none_chosen,no
1524172073,f9d5cfda7f04b556778b047637d86e1a,Form,19,0,control,NULL,_REACTION_TIME_,15977
1524172073,f9d5cfda7f04b556778b047637d86e1a,Form,16,0,low,NULL,answers_reported,placeholderCoworker 1 says%2C "Studio B."%2CCoworker 2 says%2C "Studio A."%2CCoworker 3 says%2C "Studio F."
1524172073,f9d5cfda7f04b556778b047637d86e1a,Form,16,0,low,NULL,yoga_coworker_A_chosen,no
1524172073,f9d5cfda7f04b556778b047637d86e1a,Form,16,0,low,NULL,yoga_coworker_B_chosen,no
1524172073,f9d5cfda7f04b556778b047637d86e1a,Form,16,0,low,NULL,yoga_coworker_C_chosen,yes
1524172073,f9d5cfda7f04b556778b047637d86e1a,Form,16,0,low,NULL,no_one_chosen,no
1524172073,f9d5cfda7f04b556778b047637d86e1a,Form,16,0,low,NULL,_REACTION_TIME_,8425
1524172073,f9d5cfda7f04b556778b047637d86e1a,Form,22,0,nst,NULL,NST_1a_chosen,yes
1524172073,f9d5cfda7f04b556778b047637d86e1a,Form,22,0,nst,NULL,NST_1b_chosen,no
1524172073,f9d5cfda7f04b556778b047637d86e1a,Form,22,0,nst,NULL,NST_1c_chosen,no
1524172073,f9d5cfda7f04b556778b047637d86e1a,Form,22,0,nst,NULL,NST_1d_chosen,yes
1524172073,f9d5cfda7f04b556778b047637d86e1a,Form,22,0,nst,NULL,_REACTION_TIME_,10561
1524172073,f9d5cfda7f04b556778b047637d86e1a,Form,8,0,high,NULL,answers_reported,placeholderInspector 1 says%2C "Restaurant E."%2CInspector 2 says%2C "Restaurant A."%2CInspector 3 says%2C "Restaurants A and B."
1524172073,f9d5cfda7f04b556778b047637d86e1a,Form,8,0,high,NULL,inspector_A_chosen,no
1524172073,f9d5cfda7f04b556778b047637d86e1a,Form,8,0,high,NULL,inspector_B_chosen,yes
1524172073,f9d5cfda7f04b556778b047637d86e1a,Form,8,0,high,NULL,inspector_C_chosen,yes
1524172073,f9d5cfda7f04b556778b047637d86e1a,Form,8,0,high,NULL,no_one_chosen,no
1524172073,f9d5cfda7f04b556778b047637d86e1a,Form,8,0,high,NULL,_REACTION_TIME_,16908
1524172073,f9d5cfda7f04b556778b047637d86e1a,Form,20,0,control,NULL,when_A_chosen,no
1524172073,f9d5cfda7f04b556778b047637d86e1a,Form,20,0,control,NULL,when_B_chosen,yes
1524172073,f9d5cfda7f04b556778b047637d86e1a,Form,20,0,control,NULL,when_C_chosen,no
1524172073,f9d5cfda7f04b556778b047637d86e1a,Form,20,0,control,NULL,none_chosen,no
1524172073,f9d5cfda7f04b556778b047637d86e1a,Form,20,0,control,NULL,_REACTION_TIME_,19943
1524172073,f9d5cfda7f04b556778b047637d86e1a,Form,17,0,low,NULL,answers_reported,placeholderBrother 1 says%2C "Stalls C%2C D%2C A%2C F and B."%2CBrother 2 says%2C "Stalls C and D."%2CBrother 3 says%2C "Stalls A and B."
1524172073,f9d5cfda7f04b556778b047637d86e1a,Form,17,0,low,NULL,brother_A_chosen,no
1524172073,f9d5cfda7f04b556778b047637d86e1a,Form,17,0,low,NULL,brother_B_chosen,yes
1524172073,f9d5cfda7f04b556778b047637d86e1a,Form,17,0,low,NULL,brother_C_chosen,no
1524172073,f9d5cfda7f04b556778b047637d86e1a,Form,17,0,low,NULL,no_one_chosen,no
1524172073,f9d5cfda7f04b556778b047637d86e1a,Form,17,0,low,NULL,_REACTION_TIME_,8655
1524172073,f9d5cfda7f04b556778b047637d86e1a,Form,9,0,high,NULL,answers_reported,placeholderFirefighter 1 says%2C "The sixth floor."%2CFirefighter 2 says%2C "The fifth and second floors."%2CFirefighter 3 says%2C "The first floor."
1524172073,f9d5cfda7f04b556778b047637d86e1a,Form,9,0,high,NULL,firefighter_A_chosen,no
1524172073,f9d5cfda7f04b556778b047637d86e1a,Form,9,0,high,NULL,firefighter_B_chosen,yes
1524172073,f9d5cfda7f04b556778b047637d86e1a,Form,9,0,high,NULL,firefighter_C_chosen,no
1524172073,f9d5cfda7f04b556778b047637d86e1a,Form,9,0,high,NULL,no_one_chosen,no
1524172073,f9d5cfda7f04b556778b047637d86e1a,Form,9,0,high,NULL,_REACTION_TIME_,8221
1524172073,f9d5cfda7f04b556778b047637d86e1a,Form,23,0,nst,NULL,NST_2a_chosen,no
1524172073,f9d5cfda7f04b556778b047637d86e1a,Form,23,0,nst,NULL,NST_2b_chosen,yes
1524172073,f9d5cfda7f04b556778b047637d86e1a,Form,23,0,nst,NULL,NST_2c_chosen,no
1524172073,f9d5cfda7f04b556778b047637d86e1a,Form,23,0,nst,NULL,NST_2d_chosen,no
1524172073,f9d5cfda7f04b556778b047637d86e1a,Form,23,0,nst,NULL,NST_2e_chosen,no
1524172073,f9d5cfda7f04b556778b047637d86e1a,Form,23,0,nst,NULL,_REACTION_TIME_,11773
1524172073,f9d5cfda7f04b556778b047637d86e1a,Form,14,0,low,NULL,answers_reported,placeholderFriend 1 says%2C "Diners A and E."%2CFriend 2 says%2C "Diner C."%2CFriend 3 says%2C "Diner E."
1524172073,f9d5cfda7f04b556778b047637d86e1a,Form,14,0,low,NULL,la_friend_A_chosen,no
1524172073,f9d5cfda7f04b556778b047637d86e1a,Form,14,0,low,NULL,la_friend_B_chosen,yes
1524172073,f9d5cfda7f04b556778b047637d86e1a,Form,14,0,low,NULL,la_friend_C_chosen,no
1524172073,f9d5cfda7f04b556778b047637d86e1a,Form,14,0,low,NULL,no_one_chosen,no
1524172073,f9d5cfda7f04b556778b047637d86e1a,Form,14,0,low,NULL,_REACTION_TIME_,6832
1524172073,f9d5cfda7f04b556778b047637d86e1a,Form,21,0,control,NULL,how_guest_A_chosen,no
1524172073,f9d5cfda7f04b556778b047637d86e1a,Form,21,0,control,NULL,how_guest_B_chosen,no
1524172073,f9d5cfda7f04b556778b047637d86e1a,Form,21,0,control,NULL,how_guest_C_chosen,yes
1524172073,f9d5cfda7f04b556778b047637d86e1a,Form,21,0,control,NULL,none_chosen,no
1524172073,f9d5cfda7f04b556778b047637d86e1a,Form,21,0,control,NULL,_REACTION_TIME_,17175
1524172073,f9d5cfda7f04b556778b047637d86e1a,Form,12,0,high,NULL,answers_reported,placeholderInvestigator 1 says%2C "Places B and E."%2CInvestigator 2 says%2C "Place E."%2CInvestigator 3 says%2C "Place D."
1524172073,f9d5cfda7f04b556778b047637d86e1a,Form,12,0,high,NULL,fbi_investigator_A_chosen,yes
1524172073,f9d5cfda7f04b556778b047637d86e1a,Form,12,0,high,NULL,fbi_investigator_B_chosen,no
1524172073,f9d5cfda7f04b556778b047637d86e1a,Form,12,0,high,NULL,fbi_investigator_C_chosen,no
1524172073,f9d5cfda7f04b556778b047637d86e1a,Form,12,0,high,NULL,no_one_chosen,no
1524172073,f9d5cfda7f04b556778b047637d86e1a,Form,12,0,high,NULL,_REACTION_TIME_,16800
1524172073,f9d5cfda7f04b556778b047637d86e1a,Form,15,0,low,NULL,answers_reported,placeholderClassmate 1 says%2C "Cafe D."%2CClassmate 2 says%2C "Cafes E and B."%2CClassmate 3 says%2C "Cafe A."
1524172073,f9d5cfda7f04b556778b047637d86e1a,Form,15,0,low,NULL,coffee_classmate_A_chosen,no
1524172073,f9d5cfda7f04b556778b047637d86e1a,Form,15,0,low,NULL,coffee_classmate_B_chosen,yes
1524172073,f9d5cfda7f04b556778b047637d86e1a,Form,15,0,low,NULL,coffee_classmate_C_chosen,no
1524172073,f9d5cfda7f04b556778b047637d86e1a,Form,15,0,low,NULL,no_one_chosen,no
1524172073,f9d5cfda7f04b556778b047637d86e1a,Form,15,0,low,NULL,_REACTION_TIME_,5944
1524172073,f9d5cfda7f04b556778b047637d86e1a,Form,24,0,nst,NULL,NST_3a_chosen,yes
1524172073,f9d5cfda7f04b556778b047637d86e1a,Form,24,0,nst,NULL,NST_3b_chosen,no
1524172073,f9d5cfda7f04b556778b047637d86e1a,Form,24,0,nst,NULL,NST_3c_chosen,no
1524172073,f9d5cfda7f04b556778b047637d86e1a,Form,24,0,nst,NULL,NST_3d_chosen,yes
1524172073,f9d5cfda7f04b556778b047637d86e1a,Form,24,0,nst,NULL,NST_3e_chosen,no
1524172073,f9d5cfda7f04b556778b047637d86e1a,Form,24,0,nst,NULL,_REACTION_TIME_,10555
1524172073,f9d5cfda7f04b556778b047637d86e1a,Form,18,0,control,NULL,why_A_chosen,yes
1524172073,f9d5cfda7f04b556778b047637d86e1a,Form,18,0,control,NULL,why_B_chosen,no
1524172073,f9d5cfda7f04b556778b047637d86e1a,Form,18,0,control,NULL,why_C_chosen,no
1524172073,f9d5cfda7f04b556778b047637d86e1a,Form,18,0,control,NULL,none_chosen,no
1524172073,f9d5cfda7f04b556778b047637d86e1a,Form,18,0,control,NULL,_REACTION_TIME_,12048
1524172073,f9d5cfda7f04b556778b047637d86e1a,Form,6,0,exit_quest,NULL,know_conditons,At the coffee shop
1524172073,f9d5cfda7f04b556778b047637d86e1a,Form,6,0,exit_quest,NULL,know_conditons,Downtown
1524172073,f9d5cfda7f04b556778b047637d86e1a,Form,6,0,exit_quest,NULL,difficult,Sort of%2C I got confused
1524172073,f9d5cfda7f04b556778b047637d86e1a,Form,6,0,exit_quest,NULL,anything_else,No
1524172073,f9d5cfda7f04b556778b047637d86e1a,Form,6,0,exit_quest,NULL,dummy_checkbox_,yes
1524172073,f9d5cfda7f04b556778b047637d86e1a,Form,6,0,exit_quest,NULL,_REACTION_TIME_,21472
#
# Results on Thursday April 19 2018 21:09:33 UTC.
# USER AGENT: Mozilla/5.0 (Windows NT 10.0; Win64; x64) AppleWebKit/537.36 (KHTML, like Gecko) Chrome/65.0.3325.181 Safari/537.36
# Design number was non-random = 76
#
# Columns below this comment are as follows:
# 1. Time results were received.
# 2. MD5 hash of participant's IP address.
# 3. Controller name.
# 4. Item number.
# 5. Element number.
# 6. Type.
# 7. Group.
# 8. Field name.
# 9. Field value.
1524172173,9905f6ee849df8f4bb5b34a31965ea43,Form,2,0,consent,NULL,subject_id,ACVJ6IUO9QM4R
1524172173,9905f6ee849df8f4bb5b34a31965ea43,Form,2,0,consent,NULL,native_lang,English
1524172173,9905f6ee849df8f4bb5b34a31965ea43,Form,2,0,consent,NULL,age,35 
1524172173,9905f6ee849df8f4bb5b34a31965ea43,Form,2,0,consent,NULL,consent_checkbox_,yes
1524172173,9905f6ee849df8f4bb5b34a31965ea43,Form,2,0,consent,NULL,dummy_checkbox_,yes
1524172173,9905f6ee849df8f4bb5b34a31965ea43,Form,2,0,consent,NULL,sex,female
1524172173,9905f6ee849df8f4bb5b34a31965ea43,Form,2,0,consent,NULL,_REACTION_TIME_,14965
1524172173,9905f6ee849df8f4bb5b34a31965ea43,Form,1,0,instructions,NULL,dummy_checkbox_,yes
1524172173,9905f6ee849df8f4bb5b34a31965ea43,Form,1,0,instructions,NULL,_REACTION_TIME_,1619
1524172173,9905f6ee849df8f4bb5b34a31965ea43,Form,3,0,train,NULL,train_f_A_chosen,no
1524172173,9905f6ee849df8f4bb5b34a31965ea43,Form,3,0,train,NULL,train_f_B_chosen,yes
1524172173,9905f6ee849df8f4bb5b34a31965ea43,Form,3,0,train,NULL,train_f_C_chosen,no
1524172173,9905f6ee849df8f4bb5b34a31965ea43,Form,3,0,train,NULL,none_chosen,no
1524172173,9905f6ee849df8f4bb5b34a31965ea43,Form,3,0,train,NULL,_REACTION_TIME_,13809
1524172173,9905f6ee849df8f4bb5b34a31965ea43,Form,4,0,train,NULL,train_m_A_chosen,no
1524172173,9905f6ee849df8f4bb5b34a31965ea43,Form,4,0,train,NULL,train_m_B_chosen,no
1524172173,9905f6ee849df8f4bb5b34a31965ea43,Form,4,0,train,NULL,train_m_C_chosen,yes
1524172173,9905f6ee849df8f4bb5b34a31965ea43,Form,4,0,train,NULL,none_chosen,no
1524172173,9905f6ee849df8f4bb5b34a31965ea43,Form,4,0,train,NULL,_REACTION_TIME_,4310
1524172173,9905f6ee849df8f4bb5b34a31965ea43,Form,5,0,train_end,NULL,dummy_checkbox_,yes
1524172173,9905f6ee849df8f4bb5b34a31965ea43,Form,5,0,train_end,NULL,_REACTION_TIME_,1110
1524172173,9905f6ee849df8f4bb5b34a31965ea43,Form,15,0,low,NULL,answers_reported,placeholderClassmate 1 says%2C "Cafe E."%2CClassmate 2 says%2C "Cafes E and B."%2CClassmate 3 says%2C "Cafe D."
1524172173,9905f6ee849df8f4bb5b34a31965ea43,Form,15,0,low,NULL,coffee_classmate_A_chosen,yes
1524172173,9905f6ee849df8f4bb5b34a31965ea43,Form,15,0,low,NULL,coffee_classmate_B_chosen,no
1524172173,9905f6ee849df8f4bb5b34a31965ea43,Form,15,0,low,NULL,coffee_classmate_C_chosen,no
1524172173,9905f6ee849df8f4bb5b34a31965ea43,Form,15,0,low,NULL,no_one_chosen,no
1524172173,9905f6ee849df8f4bb5b34a31965ea43,Form,15,0,low,NULL,_REACTION_TIME_,2635
1524172173,9905f6ee849df8f4bb5b34a31965ea43,Form,10,0,high,NULL,answers_reported,placeholderOperative 1 says%2C "The South and North districts."%2COperative 2 says%2C "The North district."%2COperative 3 says%2C "The Northeast%2C Southwest%2C South%2C Southeast and North districts."
1524172173,9905f6ee849df8f4bb5b34a31965ea43,Form,10,0,high,NULL,operative_A_chosen,no
1524172173,9905f6ee849df8f4bb5b34a31965ea43,Form,10,0,high,NULL,operative_B_chosen,yes
1524172173,9905f6ee849df8f4bb5b34a31965ea43,Form,10,0,high,NULL,operative_C_chosen,no
1524172173,9905f6ee849df8f4bb5b34a31965ea43,Form,10,0,high,NULL,no_one_chosen,no
1524172173,9905f6ee849df8f4bb5b34a31965ea43,Form,10,0,high,NULL,_REACTION_TIME_,1679
1524172173,9905f6ee849df8f4bb5b34a31965ea43,Form,14,0,low,NULL,answers_reported,placeholderFriend 1 says%2C "Diners A and E."%2CFriend 2 says%2C "Diner E."%2CFriend 3 says%2C "Diner C."
1524172173,9905f6ee849df8f4bb5b34a31965ea43,Form,14,0,low,NULL,la_friend_A_chosen,yes
1524172173,9905f6ee849df8f4bb5b34a31965ea43,Form,14,0,low,NULL,la_friend_B_chosen,no
1524172173,9905f6ee849df8f4bb5b34a31965ea43,Form,14,0,low,NULL,la_friend_C_chosen,no
1524172173,9905f6ee849df8f4bb5b34a31965ea43,Form,14,0,low,NULL,no_one_chosen,no
1524172173,9905f6ee849df8f4bb5b34a31965ea43,Form,14,0,low,NULL,_REACTION_TIME_,3091
1524172173,9905f6ee849df8f4bb5b34a31965ea43,Form,19,0,control,NULL,what_A_chosen,no
1524172173,9905f6ee849df8f4bb5b34a31965ea43,Form,19,0,control,NULL,what_B_chosen,no
1524172173,9905f6ee849df8f4bb5b34a31965ea43,Form,19,0,control,NULL,what_C_chosen,yes
1524172173,9905f6ee849df8f4bb5b34a31965ea43,Form,19,0,control,NULL,none_chosen,no
1524172173,9905f6ee849df8f4bb5b34a31965ea43,Form,19,0,control,NULL,_REACTION_TIME_,2074
1524172173,9905f6ee849df8f4bb5b34a31965ea43,Form,23,0,nst,NULL,NST_2a_chosen,no
1524172173,9905f6ee849df8f4bb5b34a31965ea43,Form,23,0,nst,NULL,NST_2b_chosen,no
1524172173,9905f6ee849df8f4bb5b34a31965ea43,Form,23,0,nst,NULL,NST_2c_chosen,no
1524172173,9905f6ee849df8f4bb5b34a31965ea43,Form,23,0,nst,NULL,NST_2d_chosen,no
1524172173,9905f6ee849df8f4bb5b34a31965ea43,Form,23,0,nst,NULL,NST_2e_chosen,yes
1524172173,9905f6ee849df8f4bb5b34a31965ea43,Form,23,0,nst,NULL,_REACTION_TIME_,15918
1524172173,9905f6ee849df8f4bb5b34a31965ea43,Form,9,0,high,NULL,answers_reported,placeholderFirefighter 1 says%2C "The fifth floor."%2CFirefighter 2 says%2C "The fourth and sixth floors."%2CFirefighter 3 says%2C "The fifth%2C second%2C fourth%2C third and sixth floors."
1524172173,9905f6ee849df8f4bb5b34a31965ea43,Form,9,0,high,NULL,firefighter_A_chosen,no
1524172173,9905f6ee849df8f4bb5b34a31965ea43,Form,9,0,high,NULL,firefighter_B_chosen,yes
1524172173,9905f6ee849df8f4bb5b34a31965ea43,Form,9,0,high,NULL,firefighter_C_chosen,yes
1524172173,9905f6ee849df8f4bb5b34a31965ea43,Form,9,0,high,NULL,no_one_chosen,no
1524172173,9905f6ee849df8f4bb5b34a31965ea43,Form,9,0,high,NULL,_REACTION_TIME_,3914
1524172173,9905f6ee849df8f4bb5b34a31965ea43,Form,16,0,low,NULL,answers_reported,placeholderCoworker 1 says%2C "Studio A."%2CCoworker 2 says%2C "Studios F and E."%2CCoworker 3 says%2C "Studio B."
1524172173,9905f6ee849df8f4bb5b34a31965ea43,Form,16,0,low,NULL,yoga_coworker_A_chosen,no
1524172173,9905f6ee849df8f4bb5b34a31965ea43,Form,16,0,low,NULL,yoga_coworker_B_chosen,yes
1524172173,9905f6ee849df8f4bb5b34a31965ea43,Form,16,0,low,NULL,yoga_coworker_C_chosen,no
1524172173,9905f6ee849df8f4bb5b34a31965ea43,Form,16,0,low,NULL,no_one_chosen,no
1524172173,9905f6ee849df8f4bb5b34a31965ea43,Form,16,0,low,NULL,_REACTION_TIME_,1260
1524172173,9905f6ee849df8f4bb5b34a31965ea43,Form,18,0,control,NULL,why_A_chosen,no
1524172173,9905f6ee849df8f4bb5b34a31965ea43,Form,18,0,control,NULL,why_B_chosen,no
1524172173,9905f6ee849df8f4bb5b34a31965ea43,Form,18,0,control,NULL,why_C_chosen,yes
1524172173,9905f6ee849df8f4bb5b34a31965ea43,Form,18,0,control,NULL,none_chosen,no
1524172173,9905f6ee849df8f4bb5b34a31965ea43,Form,18,0,control,NULL,_REACTION_TIME_,1190
1524172173,9905f6ee849df8f4bb5b34a31965ea43,Form,25,0,nst,NULL,NST_4a_chosen,yes
1524172173,9905f6ee849df8f4bb5b34a31965ea43,Form,25,0,nst,NULL,NST_4b_chosen,no
1524172173,9905f6ee849df8f4bb5b34a31965ea43,Form,25,0,nst,NULL,_REACTION_TIME_,3468
1524172173,9905f6ee849df8f4bb5b34a31965ea43,Form,8,0,high,NULL,answers_reported,placeholderInspector 1 says%2C "Restaurants A%2C B%2C C%2C D%2C and E."%2CInspector 2 says%2C "Restaurants A and B."%2CInspector 3 says%2C "Restaurants C and E."
1524172173,9905f6ee849df8f4bb5b34a31965ea43,Form,8,0,high,NULL,inspector_A_chosen,no
1524172173,9905f6ee849df8f4bb5b34a31965ea43,Form,8,0,high,NULL,inspector_B_chosen,no
1524172173,9905f6ee849df8f4bb5b34a31965ea43,Form,8,0,high,NULL,inspector_C_chosen,yes
1524172173,9905f6ee849df8f4bb5b34a31965ea43,Form,8,0,high,NULL,no_one_chosen,no
1524172173,9905f6ee849df8f4bb5b34a31965ea43,Form,8,0,high,NULL,_REACTION_TIME_,1874
1524172173,9905f6ee849df8f4bb5b34a31965ea43,Form,17,0,low,NULL,answers_reported,placeholderBrother 1 says%2C "Stalls C and D."%2CBrother 2 says%2C "Stall B."%2CBrother 3 says%2C "Stalls C%2C D%2C A%2C F and B."
1524172173,9905f6ee849df8f4bb5b34a31965ea43,Form,17,0,low,NULL,brother_A_chosen,no
1524172173,9905f6ee849df8f4bb5b34a31965ea43,Form,17,0,low,NULL,brother_B_chosen,yes
1524172173,9905f6ee849df8f4bb5b34a31965ea43,Form,17,0,low,NULL,brother_C_chosen,no
1524172173,9905f6ee849df8f4bb5b34a31965ea43,Form,17,0,low,NULL,no_one_chosen,no
1524172173,9905f6ee849df8f4bb5b34a31965ea43,Form,17,0,low,NULL,_REACTION_TIME_,1029
1524172173,9905f6ee849df8f4bb5b34a31965ea43,Form,11,0,high,NULL,answers_reported,placeholderAdvisor 1 says%2C "Store F."%2CAdvisor 2 says%2C "Store C."%2CAdvisor 3 says%2C "Stores A and F."
1524172173,9905f6ee849df8f4bb5b34a31965ea43,Form,11,0,high,NULL,terrorism_advisor_A_chosen,yes
1524172173,9905f6ee849df8f4bb5b34a31965ea43,Form,11,0,high,NULL,terrorism_advisor_B_chosen,no
1524172173,9905f6ee849df8f4bb5b34a31965ea43,Form,11,0,high,NULL,terrorism_advisor_C_chosen,no
1524172173,9905f6ee849df8f4bb5b34a31965ea43,Form,11,0,high,NULL,no_one_chosen,no
1524172173,9905f6ee849df8f4bb5b34a31965ea43,Form,11,0,high,NULL,_REACTION_TIME_,1157
1524172173,9905f6ee849df8f4bb5b34a31965ea43,Form,20,0,control,NULL,when_A_chosen,no
1524172173,9905f6ee849df8f4bb5b34a31965ea43,Form,20,0,control,NULL,when_B_chosen,yes
1524172173,9905f6ee849df8f4bb5b34a31965ea43,Form,20,0,control,NULL,when_C_chosen,no
1524172173,9905f6ee849df8f4bb5b34a31965ea43,Form,20,0,control,NULL,none_chosen,no
1524172173,9905f6ee849df8f4bb5b34a31965ea43,Form,20,0,control,NULL,_REACTION_TIME_,1572
1524172173,9905f6ee849df8f4bb5b34a31965ea43,Form,24,0,nst,NULL,NST_3a_chosen,no
1524172173,9905f6ee849df8f4bb5b34a31965ea43,Form,24,0,nst,NULL,NST_3b_chosen,no
1524172173,9905f6ee849df8f4bb5b34a31965ea43,Form,24,0,nst,NULL,NST_3c_chosen,yes
1524172173,9905f6ee849df8f4bb5b34a31965ea43,Form,24,0,nst,NULL,NST_3d_chosen,no
1524172173,9905f6ee849df8f4bb5b34a31965ea43,Form,24,0,nst,NULL,NST_3e_chosen,no
1524172173,9905f6ee849df8f4bb5b34a31965ea43,Form,24,0,nst,NULL,_REACTION_TIME_,3011
1524172173,9905f6ee849df8f4bb5b34a31965ea43,Form,13,0,low,NULL,answers_reported,placeholderCousin 1 says%2C "Location A."%2CCousin 2 says%2C "Locations D and F."%2CCousin 3 says%2C "Location F."
1524172173,9905f6ee849df8f4bb5b34a31965ea43,Form,13,0,low,NULL,pic_cousin_A_chosen,yes
1524172173,9905f6ee849df8f4bb5b34a31965ea43,Form,13,0,low,NULL,pic_cousin_B_chosen,no
1524172173,9905f6ee849df8f4bb5b34a31965ea43,Form,13,0,low,NULL,pic_cousin_C_chosen,no
1524172173,9905f6ee849df8f4bb5b34a31965ea43,Form,13,0,low,NULL,no_one_chosen,no
1524172173,9905f6ee849df8f4bb5b34a31965ea43,Form,13,0,low,NULL,_REACTION_TIME_,2148
1524172173,9905f6ee849df8f4bb5b34a31965ea43,Form,12,0,high,NULL,answers_reported,placeholderInvestigator 1 says%2C "Place E."%2CInvestigator 2 says%2C "Place F."%2CInvestigator 3 says%2C "Places F and A."
1524172173,9905f6ee849df8f4bb5b34a31965ea43,Form,12,0,high,NULL,fbi_investigator_A_chosen,no
1524172173,9905f6ee849df8f4bb5b34a31965ea43,Form,12,0,high,NULL,fbi_investigator_B_chosen,yes
1524172173,9905f6ee849df8f4bb5b34a31965ea43,Form,12,0,high,NULL,fbi_investigator_C_chosen,no
1524172173,9905f6ee849df8f4bb5b34a31965ea43,Form,12,0,high,NULL,no_one_chosen,no
1524172173,9905f6ee849df8f4bb5b34a31965ea43,Form,12,0,high,NULL,_REACTION_TIME_,2432
1524172173,9905f6ee849df8f4bb5b34a31965ea43,Form,21,0,control,NULL,how_guest_A_chosen,no
1524172173,9905f6ee849df8f4bb5b34a31965ea43,Form,21,0,control,NULL,how_guest_B_chosen,yes
1524172173,9905f6ee849df8f4bb5b34a31965ea43,Form,21,0,control,NULL,how_guest_C_chosen,no
1524172173,9905f6ee849df8f4bb5b34a31965ea43,Form,21,0,control,NULL,none_chosen,no
1524172173,9905f6ee849df8f4bb5b34a31965ea43,Form,21,0,control,NULL,_REACTION_TIME_,3664
1524172173,9905f6ee849df8f4bb5b34a31965ea43,Form,22,0,nst,NULL,NST_1a_chosen,no
1524172173,9905f6ee849df8f4bb5b34a31965ea43,Form,22,0,nst,NULL,NST_1b_chosen,yes
1524172173,9905f6ee849df8f4bb5b34a31965ea43,Form,22,0,nst,NULL,NST_1c_chosen,no
1524172173,9905f6ee849df8f4bb5b34a31965ea43,Form,22,0,nst,NULL,NST_1d_chosen,no
1524172173,9905f6ee849df8f4bb5b34a31965ea43,Form,22,0,nst,NULL,_REACTION_TIME_,2446
1524172173,9905f6ee849df8f4bb5b34a31965ea43,Form,6,0,exit_quest,NULL,know_conditons,at the coffee shop. 
1524172173,9905f6ee849df8f4bb5b34a31965ea43,Form,6,0,exit_quest,NULL,know_conditons,in the cubboard 
1524172173,9905f6ee849df8f4bb5b34a31965ea43,Form,6,0,exit_quest,NULL,difficult,yes it ws difficult because some of the paragraphs were long and didnt make sense the way they were worded 
1524172173,9905f6ee849df8f4bb5b34a31965ea43,Form,6,0,exit_quest,NULL,anything_else,n
1524172173,9905f6ee849df8f4bb5b34a31965ea43,Form,6,0,exit_quest,NULL,dummy_checkbox_,yes
1524172173,9905f6ee849df8f4bb5b34a31965ea43,Form,6,0,exit_quest,NULL,_REACTION_TIME_,30197
#
# Results on Thursday April 19 2018 21:11:18 UTC.
# USER AGENT: Mozilla/5.0 (Windows NT 10.0; Win64; x64) AppleWebKit/537.36 (KHTML, like Gecko) Chrome/65.0.3325.181 Safari/537.36
# Design number was non-random = 74
#
# Columns below this comment are as follows:
# 1. Time results were received.
# 2. MD5 hash of participant's IP address.
# 3. Controller name.
# 4. Item number.
# 5. Element number.
# 6. Type.
# 7. Group.
# 8. Field name.
# 9. Field value.
1524172279,9919661ac8dca77e54c910cbb54f0ff1,Form,2,0,consent,NULL,subject_id,A1DIW2K1J89CMO
1524172279,9919661ac8dca77e54c910cbb54f0ff1,Form,2,0,consent,NULL,native_lang,English
1524172279,9919661ac8dca77e54c910cbb54f0ff1,Form,2,0,consent,NULL,age,22
1524172279,9919661ac8dca77e54c910cbb54f0ff1,Form,2,0,consent,NULL,consent_checkbox_,no
1524172279,9919661ac8dca77e54c910cbb54f0ff1,Form,2,0,consent,NULL,dummy_checkbox_,yes
1524172279,9919661ac8dca77e54c910cbb54f0ff1,Form,2,0,consent,NULL,sex,female
1524172279,9919661ac8dca77e54c910cbb54f0ff1,Form,2,0,consent,NULL,_REACTION_TIME_,15875
1524172279,9919661ac8dca77e54c910cbb54f0ff1,Form,1,0,instructions,NULL,dummy_checkbox_,yes
1524172279,9919661ac8dca77e54c910cbb54f0ff1,Form,1,0,instructions,NULL,_REACTION_TIME_,9616
1524172279,9919661ac8dca77e54c910cbb54f0ff1,Form,3,0,train,NULL,train_f_A_chosen,no
1524172279,9919661ac8dca77e54c910cbb54f0ff1,Form,3,0,train,NULL,train_f_B_chosen,no
1524172279,9919661ac8dca77e54c910cbb54f0ff1,Form,3,0,train,NULL,train_f_C_chosen,no
1524172279,9919661ac8dca77e54c910cbb54f0ff1,Form,3,0,train,NULL,none_chosen,yes
1524172279,9919661ac8dca77e54c910cbb54f0ff1,Form,3,0,train,NULL,_REACTION_TIME_,27634
1524172279,9919661ac8dca77e54c910cbb54f0ff1,Form,4,0,train,NULL,train_m_A_chosen,no
1524172279,9919661ac8dca77e54c910cbb54f0ff1,Form,4,0,train,NULL,train_m_B_chosen,yes
1524172279,9919661ac8dca77e54c910cbb54f0ff1,Form,4,0,train,NULL,train_m_C_chosen,yes
1524172279,9919661ac8dca77e54c910cbb54f0ff1,Form,4,0,train,NULL,none_chosen,no
1524172279,9919661ac8dca77e54c910cbb54f0ff1,Form,4,0,train,NULL,_REACTION_TIME_,28738
1524172279,9919661ac8dca77e54c910cbb54f0ff1,Form,5,0,train_end,NULL,dummy_checkbox_,yes
1524172279,9919661ac8dca77e54c910cbb54f0ff1,Form,5,0,train_end,NULL,_REACTION_TIME_,1446
1524172279,9919661ac8dca77e54c910cbb54f0ff1,Form,12,0,high,NULL,answers_reported,placeholderInvestigator 1 says%2C "Place E."%2CInvestigator 2 says%2C "Places B and E."%2CInvestigator 3 says%2C "Places F and A."
1524172279,9919661ac8dca77e54c910cbb54f0ff1,Form,12,0,high,NULL,fbi_investigator_A_chosen,no
1524172279,9919661ac8dca77e54c910cbb54f0ff1,Form,12,0,high,NULL,fbi_investigator_B_chosen,no
1524172279,9919661ac8dca77e54c910cbb54f0ff1,Form,12,0,high,NULL,fbi_investigator_C_chosen,yes
1524172279,9919661ac8dca77e54c910cbb54f0ff1,Form,12,0,high,NULL,no_one_chosen,no
1524172279,9919661ac8dca77e54c910cbb54f0ff1,Form,12,0,high,NULL,_REACTION_TIME_,25597
1524172279,9919661ac8dca77e54c910cbb54f0ff1,Form,17,0,low,NULL,answers_reported,placeholderBrother 1 says%2C "Stall E."%2CBrother 2 says%2C "Stalls A and B."%2CBrother 3 says%2C "Stall C."
1524172279,9919661ac8dca77e54c910cbb54f0ff1,Form,17,0,low,NULL,brother_A_chosen,no
1524172279,9919661ac8dca77e54c910cbb54f0ff1,Form,17,0,low,NULL,brother_B_chosen,no
1524172279,9919661ac8dca77e54c910cbb54f0ff1,Form,17,0,low,NULL,brother_C_chosen,yes
1524172279,9919661ac8dca77e54c910cbb54f0ff1,Form,17,0,low,NULL,no_one_chosen,no
1524172279,9919661ac8dca77e54c910cbb54f0ff1,Form,17,0,low,NULL,_REACTION_TIME_,50773
1524172279,9919661ac8dca77e54c910cbb54f0ff1,Form,11,0,high,NULL,answers_reported,placeholderAdvisor 1 says%2C "Stores E and B."%2CAdvisor 2 says%2C "Store F."%2CAdvisor 3 says%2C "Stores A and F."
1524172279,9919661ac8dca77e54c910cbb54f0ff1,Form,11,0,high,NULL,terrorism_advisor_A_chosen,yes
1524172279,9919661ac8dca77e54c910cbb54f0ff1,Form,11,0,high,NULL,terrorism_advisor_B_chosen,no
1524172279,9919661ac8dca77e54c910cbb54f0ff1,Form,11,0,high,NULL,terrorism_advisor_C_chosen,no
1524172279,9919661ac8dca77e54c910cbb54f0ff1,Form,11,0,high,NULL,no_one_chosen,no
1524172279,9919661ac8dca77e54c910cbb54f0ff1,Form,11,0,high,NULL,_REACTION_TIME_,44535
1524172279,9919661ac8dca77e54c910cbb54f0ff1,Form,24,0,nst,NULL,NST_3a_chosen,yes
1524172279,9919661ac8dca77e54c910cbb54f0ff1,Form,24,0,nst,NULL,NST_3b_chosen,no
1524172279,9919661ac8dca77e54c910cbb54f0ff1,Form,24,0,nst,NULL,NST_3c_chosen,no
1524172279,9919661ac8dca77e54c910cbb54f0ff1,Form,24,0,nst,NULL,NST_3d_chosen,yes
1524172279,9919661ac8dca77e54c910cbb54f0ff1,Form,24,0,nst,NULL,NST_3e_chosen,no
1524172279,9919661ac8dca77e54c910cbb54f0ff1,Form,24,0,nst,NULL,_REACTION_TIME_,63476
1524172279,9919661ac8dca77e54c910cbb54f0ff1,Form,18,0,control,NULL,why_A_chosen,yes
1524172279,9919661ac8dca77e54c910cbb54f0ff1,Form,18,0,control,NULL,why_B_chosen,yes
1524172279,9919661ac8dca77e54c910cbb54f0ff1,Form,18,0,control,NULL,why_C_chosen,no
1524172279,9919661ac8dca77e54c910cbb54f0ff1,Form,18,0,control,NULL,none_chosen,no
1524172279,9919661ac8dca77e54c910cbb54f0ff1,Form,18,0,control,NULL,_REACTION_TIME_,25710
1524172279,9919661ac8dca77e54c910cbb54f0ff1,Form,13,0,low,NULL,answers_reported,placeholderCousin 1 says%2C "Locations A and D."%2CCousin 2 says%2C "Location B."%2CCousin 3 says%2C "Location A."
1524172279,9919661ac8dca77e54c910cbb54f0ff1,Form,13,0,low,NULL,pic_cousin_A_chosen,yes
1524172279,9919661ac8dca77e54c910cbb54f0ff1,Form,13,0,low,NULL,pic_cousin_B_chosen,no
1524172279,9919661ac8dca77e54c910cbb54f0ff1,Form,13,0,low,NULL,pic_cousin_C_chosen,yes
1524172279,9919661ac8dca77e54c910cbb54f0ff1,Form,13,0,low,NULL,no_one_chosen,no
1524172279,9919661ac8dca77e54c910cbb54f0ff1,Form,13,0,low,NULL,_REACTION_TIME_,19286
1524172279,9919661ac8dca77e54c910cbb54f0ff1,Form,10,0,high,NULL,answers_reported,placeholderOperative 1 says%2C "The Northeast district."%2COperative 2 says%2C "The South and North districts."%2COperative 3 says%2C "The Northeast and Southwest districts."
1524172279,9919661ac8dca77e54c910cbb54f0ff1,Form,10,0,high,NULL,operative_A_chosen,yes
1524172279,9919661ac8dca77e54c910cbb54f0ff1,Form,10,0,high,NULL,operative_B_chosen,no
1524172279,9919661ac8dca77e54c910cbb54f0ff1,Form,10,0,high,NULL,operative_C_chosen,yes
1524172279,9919661ac8dca77e54c910cbb54f0ff1,Form,10,0,high,NULL,no_one_chosen,no
1524172279,9919661ac8dca77e54c910cbb54f0ff1,Form,10,0,high,NULL,_REACTION_TIME_,17381
1524172279,9919661ac8dca77e54c910cbb54f0ff1,Form,22,0,nst,NULL,NST_1a_chosen,yes
1524172279,9919661ac8dca77e54c910cbb54f0ff1,Form,22,0,nst,NULL,NST_1b_chosen,no
1524172279,9919661ac8dca77e54c910cbb54f0ff1,Form,22,0,nst,NULL,NST_1c_chosen,no
1524172279,9919661ac8dca77e54c910cbb54f0ff1,Form,22,0,nst,NULL,NST_1d_chosen,yes
1524172279,9919661ac8dca77e54c910cbb54f0ff1,Form,22,0,nst,NULL,_REACTION_TIME_,9326
1524172279,9919661ac8dca77e54c910cbb54f0ff1,Form,19,0,control,NULL,what_A_chosen,yes
1524172279,9919661ac8dca77e54c910cbb54f0ff1,Form,19,0,control,NULL,what_B_chosen,no
1524172279,9919661ac8dca77e54c910cbb54f0ff1,Form,19,0,control,NULL,what_C_chosen,no
1524172279,9919661ac8dca77e54c910cbb54f0ff1,Form,19,0,control,NULL,none_chosen,no
1524172279,9919661ac8dca77e54c910cbb54f0ff1,Form,19,0,control,NULL,_REACTION_TIME_,10573
1524172279,9919661ac8dca77e54c910cbb54f0ff1,Form,15,0,low,NULL,answers_reported,placeholderClassmate 1 says%2C "Cafe D."%2CClassmate 2 says%2C "Cafes E and B."%2CClassmate 3 says%2C "Cafes F and D."
1524172279,9919661ac8dca77e54c910cbb54f0ff1,Form,15,0,low,NULL,coffee_classmate_A_chosen,no
1524172279,9919661ac8dca77e54c910cbb54f0ff1,Form,15,0,low,NULL,coffee_classmate_B_chosen,yes
1524172279,9919661ac8dca77e54c910cbb54f0ff1,Form,15,0,low,NULL,coffee_classmate_C_chosen,no
1524172279,9919661ac8dca77e54c910cbb54f0ff1,Form,15,0,low,NULL,no_one_chosen,no
1524172279,9919661ac8dca77e54c910cbb54f0ff1,Form,15,0,low,NULL,_REACTION_TIME_,10174
1524172279,9919661ac8dca77e54c910cbb54f0ff1,Form,8,0,high,NULL,answers_reported,placeholderInspector 1 says%2C "Restaurants C and E."%2CInspector 2 says%2C "Restaurant E."%2CInspector 3 says%2C "Restaurant F."
1524172279,9919661ac8dca77e54c910cbb54f0ff1,Form,8,0,high,NULL,inspector_A_chosen,no
1524172279,9919661ac8dca77e54c910cbb54f0ff1,Form,8,0,high,NULL,inspector_B_chosen,no
1524172279,9919661ac8dca77e54c910cbb54f0ff1,Form,8,0,high,NULL,inspector_C_chosen,no
1524172279,9919661ac8dca77e54c910cbb54f0ff1,Form,8,0,high,NULL,no_one_chosen,yes
1524172279,9919661ac8dca77e54c910cbb54f0ff1,Form,8,0,high,NULL,_REACTION_TIME_,27894
1524172279,9919661ac8dca77e54c910cbb54f0ff1,Form,14,0,low,NULL,answers_reported,placeholderFriend 1 says%2C "Diners C and F."%2CFriend 2 says%2C "Diners A and E."%2CFriend 3 says%2C "Diners C%2C F%2C A%2C D%2C and E."
1524172279,9919661ac8dca77e54c910cbb54f0ff1,Form,14,0,low,NULL,la_friend_A_chosen,yes
1524172279,9919661ac8dca77e54c910cbb54f0ff1,Form,14,0,low,NULL,la_friend_B_chosen,no
1524172279,9919661ac8dca77e54c910cbb54f0ff1,Form,14,0,low,NULL,la_friend_C_chosen,no
1524172279,9919661ac8dca77e54c910cbb54f0ff1,Form,14,0,low,NULL,no_one_chosen,no
1524172279,9919661ac8dca77e54c910cbb54f0ff1,Form,14,0,low,NULL,_REACTION_TIME_,18678
1524172279,9919661ac8dca77e54c910cbb54f0ff1,Form,23,0,nst,NULL,NST_2a_chosen,yes
1524172279,9919661ac8dca77e54c910cbb54f0ff1,Form,23,0,nst,NULL,NST_2b_chosen,yes
1524172279,9919661ac8dca77e54c910cbb54f0ff1,Form,23,0,nst,NULL,NST_2c_chosen,no
1524172279,9919661ac8dca77e54c910cbb54f0ff1,Form,23,0,nst,NULL,NST_2d_chosen,no
1524172279,9919661ac8dca77e54c910cbb54f0ff1,Form,23,0,nst,NULL,NST_2e_chosen,no
1524172279,9919661ac8dca77e54c910cbb54f0ff1,Form,23,0,nst,NULL,_REACTION_TIME_,21006
1524172279,9919661ac8dca77e54c910cbb54f0ff1,Form,20,0,control,NULL,when_A_chosen,no
1524172279,9919661ac8dca77e54c910cbb54f0ff1,Form,20,0,control,NULL,when_B_chosen,no
1524172279,9919661ac8dca77e54c910cbb54f0ff1,Form,20,0,control,NULL,when_C_chosen,no
1524172279,9919661ac8dca77e54c910cbb54f0ff1,Form,20,0,control,NULL,none_chosen,yes
1524172279,9919661ac8dca77e54c910cbb54f0ff1,Form,20,0,control,NULL,_REACTION_TIME_,25182
1524172279,9919661ac8dca77e54c910cbb54f0ff1,Form,9,0,high,NULL,answers_reported,placeholderFirefighter 1 says%2C "The sixth floor."%2CFirefighter 2 says%2C "The fifth%2C second%2C fourth%2C third and sixth floors."%2CFirefighter 3 says%2C "The fifth and second floors."
1524172279,9919661ac8dca77e54c910cbb54f0ff1,Form,9,0,high,NULL,firefighter_A_chosen,no
1524172279,9919661ac8dca77e54c910cbb54f0ff1,Form,9,0,high,NULL,firefighter_B_chosen,yes
1524172279,9919661ac8dca77e54c910cbb54f0ff1,Form,9,0,high,NULL,firefighter_C_chosen,no
1524172279,9919661ac8dca77e54c910cbb54f0ff1,Form,9,0,high,NULL,no_one_chosen,no
1524172279,9919661ac8dca77e54c910cbb54f0ff1,Form,9,0,high,NULL,_REACTION_TIME_,17101
1524172279,9919661ac8dca77e54c910cbb54f0ff1,Form,16,0,low,NULL,answers_reported,placeholderCoworker 1 says%2C "Studio F."%2CCoworker 2 says%2C "Studios C and B."%2CCoworker 3 says%2C "Studios F and E."
1524172279,9919661ac8dca77e54c910cbb54f0ff1,Form,16,0,low,NULL,yoga_coworker_A_chosen,yes
1524172279,9919661ac8dca77e54c910cbb54f0ff1,Form,16,0,low,NULL,yoga_coworker_B_chosen,no
1524172279,9919661ac8dca77e54c910cbb54f0ff1,Form,16,0,low,NULL,yoga_coworker_C_chosen,yes
1524172279,9919661ac8dca77e54c910cbb54f0ff1,Form,16,0,low,NULL,no_one_chosen,no
1524172279,9919661ac8dca77e54c910cbb54f0ff1,Form,16,0,low,NULL,_REACTION_TIME_,10327
1524172279,9919661ac8dca77e54c910cbb54f0ff1,Form,25,0,nst,NULL,NST_4a_chosen,no
1524172279,9919661ac8dca77e54c910cbb54f0ff1,Form,25,0,nst,NULL,NST_4b_chosen,yes
1524172279,9919661ac8dca77e54c910cbb54f0ff1,Form,25,0,nst,NULL,_REACTION_TIME_,4909
1524172279,9919661ac8dca77e54c910cbb54f0ff1,Form,21,0,control,NULL,how_guest_A_chosen,no
1524172279,9919661ac8dca77e54c910cbb54f0ff1,Form,21,0,control,NULL,how_guest_B_chosen,yes
1524172279,9919661ac8dca77e54c910cbb54f0ff1,Form,21,0,control,NULL,how_guest_C_chosen,no
1524172279,9919661ac8dca77e54c910cbb54f0ff1,Form,21,0,control,NULL,none_chosen,no
1524172279,9919661ac8dca77e54c910cbb54f0ff1,Form,21,0,control,NULL,_REACTION_TIME_,26135
1524172279,9919661ac8dca77e54c910cbb54f0ff1,Form,6,0,exit_quest,NULL,know_conditons,He found it at that coffee shop
1524172279,9919661ac8dca77e54c910cbb54f0ff1,Form,6,0,exit_quest,NULL,know_conditons,There should be a coffee shop nearby.
1524172279,9919661ac8dca77e54c910cbb54f0ff1,Form,6,0,exit_quest,NULL,difficult,No%2C it is simply reading carefully.
1524172279,9919661ac8dca77e54c910cbb54f0ff1,Form,6,0,exit_quest,NULL,anything_else,
1524172279,9919661ac8dca77e54c910cbb54f0ff1,Form,6,0,exit_quest,NULL,dummy_checkbox_,yes
1524172279,9919661ac8dca77e54c910cbb54f0ff1,Form,6,0,exit_quest,NULL,_REACTION_TIME_,32646
#
# Results on Thursday April 19 2018 21:11:19 UTC.
# USER AGENT: Mozilla/5.0 (Windows NT 10.0; WOW64) AppleWebKit/537.36 (KHTML, like Gecko) Chrome/62.0.3202.94 Safari/537.36
# Design number was non-random = 75
#
# Columns below this comment are as follows:
# 1. Time results were received.
# 2. MD5 hash of participant's IP address.
# 3. Controller name.
# 4. Item number.
# 5. Element number.
# 6. Type.
# 7. Group.
# 8. Field name.
# 9. Field value.
1524172279,3a89a30db19c8073fa298e63ec681c9a,Form,2,0,consent,NULL,subject_id,A11FRLH5KWRLBV
1524172279,3a89a30db19c8073fa298e63ec681c9a,Form,2,0,consent,NULL,native_lang,English
1524172279,3a89a30db19c8073fa298e63ec681c9a,Form,2,0,consent,NULL,age,34
1524172279,3a89a30db19c8073fa298e63ec681c9a,Form,2,0,consent,NULL,consent_checkbox_,yes
1524172279,3a89a30db19c8073fa298e63ec681c9a,Form,2,0,consent,NULL,dummy_checkbox_,yes
1524172279,3a89a30db19c8073fa298e63ec681c9a,Form,2,0,consent,NULL,sex,male
1524172279,3a89a30db19c8073fa298e63ec681c9a,Form,2,0,consent,NULL,_REACTION_TIME_,18893
1524172279,3a89a30db19c8073fa298e63ec681c9a,Form,1,0,instructions,NULL,dummy_checkbox_,yes
1524172279,3a89a30db19c8073fa298e63ec681c9a,Form,1,0,instructions,NULL,_REACTION_TIME_,1408
1524172279,3a89a30db19c8073fa298e63ec681c9a,Form,3,0,train,NULL,train_f_A_chosen,no
1524172279,3a89a30db19c8073fa298e63ec681c9a,Form,3,0,train,NULL,train_f_B_chosen,no
1524172279,3a89a30db19c8073fa298e63ec681c9a,Form,3,0,train,NULL,train_f_C_chosen,no
1524172279,3a89a30db19c8073fa298e63ec681c9a,Form,3,0,train,NULL,none_chosen,yes
1524172279,3a89a30db19c8073fa298e63ec681c9a,Form,3,0,train,NULL,_REACTION_TIME_,96254
1524172279,3a89a30db19c8073fa298e63ec681c9a,Form,4,0,train,NULL,train_m_A_chosen,no
1524172279,3a89a30db19c8073fa298e63ec681c9a,Form,4,0,train,NULL,train_m_B_chosen,yes
1524172279,3a89a30db19c8073fa298e63ec681c9a,Form,4,0,train,NULL,train_m_C_chosen,no
1524172279,3a89a30db19c8073fa298e63ec681c9a,Form,4,0,train,NULL,none_chosen,no
1524172279,3a89a30db19c8073fa298e63ec681c9a,Form,4,0,train,NULL,_REACTION_TIME_,44724
1524172279,3a89a30db19c8073fa298e63ec681c9a,Form,5,0,train_end,NULL,dummy_checkbox_,yes
1524172279,3a89a30db19c8073fa298e63ec681c9a,Form,5,0,train_end,NULL,_REACTION_TIME_,1905
1524172279,3a89a30db19c8073fa298e63ec681c9a,Form,12,0,high,NULL,answers_reported,placeholderInvestigator 1 says%2C "Place E."%2CInvestigator 2 says%2C "Place F."%2CInvestigator 3 says%2C "Places B and E."
1524172279,3a89a30db19c8073fa298e63ec681c9a,Form,12,0,high,NULL,fbi_investigator_A_chosen,no
1524172279,3a89a30db19c8073fa298e63ec681c9a,Form,12,0,high,NULL,fbi_investigator_B_chosen,yes
1524172279,3a89a30db19c8073fa298e63ec681c9a,Form,12,0,high,NULL,fbi_investigator_C_chosen,no
1524172279,3a89a30db19c8073fa298e63ec681c9a,Form,12,0,high,NULL,no_one_chosen,no
1524172279,3a89a30db19c8073fa298e63ec681c9a,Form,12,0,high,NULL,_REACTION_TIME_,18712
1524172279,3a89a30db19c8073fa298e63ec681c9a,Form,13,0,low,NULL,answers_reported,placeholderCousin 1 says%2C "Locations D and F."%2CCousin 2 says%2C "Location A."%2CCousin 3 says%2C "Location B."
1524172279,3a89a30db19c8073fa298e63ec681c9a,Form,13,0,low,NULL,pic_cousin_A_chosen,no
1524172279,3a89a30db19c8073fa298e63ec681c9a,Form,13,0,low,NULL,pic_cousin_B_chosen,no
1524172279,3a89a30db19c8073fa298e63ec681c9a,Form,13,0,low,NULL,pic_cousin_C_chosen,yes
1524172279,3a89a30db19c8073fa298e63ec681c9a,Form,13,0,low,NULL,no_one_chosen,no
1524172279,3a89a30db19c8073fa298e63ec681c9a,Form,13,0,low,NULL,_REACTION_TIME_,1903
1524172279,3a89a30db19c8073fa298e63ec681c9a,Form,19,0,control,NULL,what_A_chosen,no
1524172279,3a89a30db19c8073fa298e63ec681c9a,Form,19,0,control,NULL,what_B_chosen,no
1524172279,3a89a30db19c8073fa298e63ec681c9a,Form,19,0,control,NULL,what_C_chosen,yes
1524172279,3a89a30db19c8073fa298e63ec681c9a,Form,19,0,control,NULL,none_chosen,no
1524172279,3a89a30db19c8073fa298e63ec681c9a,Form,19,0,control,NULL,_REACTION_TIME_,1918
1524172279,3a89a30db19c8073fa298e63ec681c9a,Form,25,0,nst,NULL,NST_4a_chosen,no
1524172279,3a89a30db19c8073fa298e63ec681c9a,Form,25,0,nst,NULL,NST_4b_chosen,yes
1524172279,3a89a30db19c8073fa298e63ec681c9a,Form,25,0,nst,NULL,_REACTION_TIME_,6620
1524172279,3a89a30db19c8073fa298e63ec681c9a,Form,11,0,high,NULL,answers_reported,placeholderAdvisor 1 says%2C "Store C."%2CAdvisor 2 says%2C "Stores E and B."%2CAdvisor 3 says%2C "Store E."
1524172279,3a89a30db19c8073fa298e63ec681c9a,Form,11,0,high,NULL,terrorism_advisor_A_chosen,no
1524172279,3a89a30db19c8073fa298e63ec681c9a,Form,11,0,high,NULL,terrorism_advisor_B_chosen,yes
1524172279,3a89a30db19c8073fa298e63ec681c9a,Form,11,0,high,NULL,terrorism_advisor_C_chosen,no
1524172279,3a89a30db19c8073fa298e63ec681c9a,Form,11,0,high,NULL,no_one_chosen,no
1524172279,3a89a30db19c8073fa298e63ec681c9a,Form,11,0,high,NULL,_REACTION_TIME_,2376
1524172279,3a89a30db19c8073fa298e63ec681c9a,Form,16,0,low,NULL,answers_reported,placeholderCoworker 1 says%2C "Studios F and E."%2CCoworker 2 says%2C "Studio F."%2CCoworker 3 says%2C "Studios F%2C E%2C D%2C C and B."
1524172279,3a89a30db19c8073fa298e63ec681c9a,Form,16,0,low,NULL,yoga_coworker_A_chosen,no
1524172279,3a89a30db19c8073fa298e63ec681c9a,Form,16,0,low,NULL,yoga_coworker_B_chosen,no
1524172279,3a89a30db19c8073fa298e63ec681c9a,Form,16,0,low,NULL,yoga_coworker_C_chosen,yes
1524172279,3a89a30db19c8073fa298e63ec681c9a,Form,16,0,low,NULL,no_one_chosen,no
1524172279,3a89a30db19c8073fa298e63ec681c9a,Form,16,0,low,NULL,_REACTION_TIME_,1464
1524172279,3a89a30db19c8073fa298e63ec681c9a,Form,18,0,control,NULL,why_A_chosen,no
1524172279,3a89a30db19c8073fa298e63ec681c9a,Form,18,0,control,NULL,why_B_chosen,no
1524172279,3a89a30db19c8073fa298e63ec681c9a,Form,18,0,control,NULL,why_C_chosen,yes
1524172279,3a89a30db19c8073fa298e63ec681c9a,Form,18,0,control,NULL,none_chosen,no
1524172279,3a89a30db19c8073fa298e63ec681c9a,Form,18,0,control,NULL,_REACTION_TIME_,2443
1524172279,3a89a30db19c8073fa298e63ec681c9a,Form,24,0,nst,NULL,NST_3a_chosen,yes
1524172279,3a89a30db19c8073fa298e63ec681c9a,Form,24,0,nst,NULL,NST_3b_chosen,no
1524172279,3a89a30db19c8073fa298e63ec681c9a,Form,24,0,nst,NULL,NST_3c_chosen,no
1524172279,3a89a30db19c8073fa298e63ec681c9a,Form,24,0,nst,NULL,NST_3d_chosen,no
1524172279,3a89a30db19c8073fa298e63ec681c9a,Form,24,0,nst,NULL,NST_3e_chosen,no
1524172279,3a89a30db19c8073fa298e63ec681c9a,Form,24,0,nst,NULL,_REACTION_TIME_,13788
1524172279,3a89a30db19c8073fa298e63ec681c9a,Form,8,0,high,NULL,answers_reported,placeholderInspector 1 says%2C "Restaurant A."%2CInspector 2 says%2C "Restaurants C and E."%2CInspector 3 says%2C "Restaurants A and B."
1524172279,3a89a30db19c8073fa298e63ec681c9a,Form,8,0,high,NULL,inspector_A_chosen,yes
1524172279,3a89a30db19c8073fa298e63ec681c9a,Form,8,0,high,NULL,inspector_B_chosen,no
1524172279,3a89a30db19c8073fa298e63ec681c9a,Form,8,0,high,NULL,inspector_C_chosen,no
1524172279,3a89a30db19c8073fa298e63ec681c9a,Form,8,0,high,NULL,no_one_chosen,no
1524172279,3a89a30db19c8073fa298e63ec681c9a,Form,8,0,high,NULL,_REACTION_TIME_,2049
1524172279,3a89a30db19c8073fa298e63ec681c9a,Form,17,0,low,NULL,answers_reported,placeholderBrother 1 says%2C "Stall E."%2CBrother 2 says%2C "Stalls C and D."%2CBrother 3 says%2C "Stalls A and B."
1524172279,3a89a30db19c8073fa298e63ec681c9a,Form,17,0,low,NULL,brother_A_chosen,no
1524172279,3a89a30db19c8073fa298e63ec681c9a,Form,17,0,low,NULL,brother_B_chosen,no
1524172279,3a89a30db19c8073fa298e63ec681c9a,Form,17,0,low,NULL,brother_C_chosen,yes
1524172279,3a89a30db19c8073fa298e63ec681c9a,Form,17,0,low,NULL,no_one_chosen,no
1524172279,3a89a30db19c8073fa298e63ec681c9a,Form,17,0,low,NULL,_REACTION_TIME_,1675
1524172279,3a89a30db19c8073fa298e63ec681c9a,Form,10,0,high,NULL,answers_reported,placeholderOperative 1 says%2C "The South and North districts."%2COperative 2 says%2C "The North district."%2COperative 3 says%2C "The Northeast and Southwest districts."
1524172279,3a89a30db19c8073fa298e63ec681c9a,Form,10,0,high,NULL,operative_A_chosen,no
1524172279,3a89a30db19c8073fa298e63ec681c9a,Form,10,0,high,NULL,operative_B_chosen,yes
1524172279,3a89a30db19c8073fa298e63ec681c9a,Form,10,0,high,NULL,operative_C_chosen,no
1524172279,3a89a30db19c8073fa298e63ec681c9a,Form,10,0,high,NULL,no_one_chosen,no
1524172279,3a89a30db19c8073fa298e63ec681c9a,Form,10,0,high,NULL,_REACTION_TIME_,5269
1524172279,3a89a30db19c8073fa298e63ec681c9a,Form,20,0,control,NULL,when_A_chosen,yes
1524172279,3a89a30db19c8073fa298e63ec681c9a,Form,20,0,control,NULL,when_B_chosen,no
1524172279,3a89a30db19c8073fa298e63ec681c9a,Form,20,0,control,NULL,when_C_chosen,no
1524172279,3a89a30db19c8073fa298e63ec681c9a,Form,20,0,control,NULL,none_chosen,no
1524172279,3a89a30db19c8073fa298e63ec681c9a,Form,20,0,control,NULL,_REACTION_TIME_,2950
1524172279,3a89a30db19c8073fa298e63ec681c9a,Form,22,0,nst,NULL,NST_1a_chosen,no
1524172279,3a89a30db19c8073fa298e63ec681c9a,Form,22,0,nst,NULL,NST_1b_chosen,no
1524172279,3a89a30db19c8073fa298e63ec681c9a,Form,22,0,nst,NULL,NST_1c_chosen,no
1524172279,3a89a30db19c8073fa298e63ec681c9a,Form,22,0,nst,NULL,NST_1d_chosen,yes
1524172279,3a89a30db19c8073fa298e63ec681c9a,Form,22,0,nst,NULL,_REACTION_TIME_,13889
1524172279,3a89a30db19c8073fa298e63ec681c9a,Form,15,0,low,NULL,answers_reported,placeholderClassmate 1 says%2C "Cafes E and B."%2CClassmate 2 says%2C "Cafe E."%2CClassmate 3 says%2C "Cafe D."
1524172279,3a89a30db19c8073fa298e63ec681c9a,Form,15,0,low,NULL,coffee_classmate_A_chosen,no
1524172279,3a89a30db19c8073fa298e63ec681c9a,Form,15,0,low,NULL,coffee_classmate_B_chosen,yes
1524172279,3a89a30db19c8073fa298e63ec681c9a,Form,15,0,low,NULL,coffee_classmate_C_chosen,no
1524172279,3a89a30db19c8073fa298e63ec681c9a,Form,15,0,low,NULL,no_one_chosen,no
1524172279,3a89a30db19c8073fa298e63ec681c9a,Form,15,0,low,NULL,_REACTION_TIME_,1915
1524172279,3a89a30db19c8073fa298e63ec681c9a,Form,9,0,high,NULL,answers_reported,placeholderFirefighter 1 says%2C "The fourth and sixth floors."%2CFirefighter 2 says%2C "The fifth floor."%2CFirefighter 3 says%2C "The sixth floor."
1524172279,3a89a30db19c8073fa298e63ec681c9a,Form,9,0,high,NULL,firefighter_A_chosen,no
1524172279,3a89a30db19c8073fa298e63ec681c9a,Form,9,0,high,NULL,firefighter_B_chosen,no
1524172279,3a89a30db19c8073fa298e63ec681c9a,Form,9,0,high,NULL,firefighter_C_chosen,yes
1524172279,3a89a30db19c8073fa298e63ec681c9a,Form,9,0,high,NULL,no_one_chosen,no
1524172279,3a89a30db19c8073fa298e63ec681c9a,Form,9,0,high,NULL,_REACTION_TIME_,2908
1524172279,3a89a30db19c8073fa298e63ec681c9a,Form,14,0,low,NULL,answers_reported,placeholderFriend 1 says%2C "Diner C."%2CFriend 2 says%2C "Diner B."%2CFriend 3 says%2C "Diners C and F."
1524172279,3a89a30db19c8073fa298e63ec681c9a,Form,14,0,low,NULL,la_friend_A_chosen,yes
1524172279,3a89a30db19c8073fa298e63ec681c9a,Form,14,0,low,NULL,la_friend_B_chosen,no
1524172279,3a89a30db19c8073fa298e63ec681c9a,Form,14,0,low,NULL,la_friend_C_chosen,no
1524172279,3a89a30db19c8073fa298e63ec681c9a,Form,14,0,low,NULL,no_one_chosen,no
1524172279,3a89a30db19c8073fa298e63ec681c9a,Form,14,0,low,NULL,_REACTION_TIME_,1741
1524172279,3a89a30db19c8073fa298e63ec681c9a,Form,21,0,control,NULL,how_guest_A_chosen,no
1524172279,3a89a30db19c8073fa298e63ec681c9a,Form,21,0,control,NULL,how_guest_B_chosen,yes
1524172279,3a89a30db19c8073fa298e63ec681c9a,Form,21,0,control,NULL,how_guest_C_chosen,no
1524172279,3a89a30db19c8073fa298e63ec681c9a,Form,21,0,control,NULL,none_chosen,no
1524172279,3a89a30db19c8073fa298e63ec681c9a,Form,21,0,control,NULL,_REACTION_TIME_,1659
1524172279,3a89a30db19c8073fa298e63ec681c9a,Form,23,0,nst,NULL,NST_2a_chosen,no
1524172279,3a89a30db19c8073fa298e63ec681c9a,Form,23,0,nst,NULL,NST_2b_chosen,no
1524172279,3a89a30db19c8073fa298e63ec681c9a,Form,23,0,nst,NULL,NST_2c_chosen,yes
1524172279,3a89a30db19c8073fa298e63ec681c9a,Form,23,0,nst,NULL,NST_2d_chosen,no
1524172279,3a89a30db19c8073fa298e63ec681c9a,Form,23,0,nst,NULL,NST_2e_chosen,no
1524172279,3a89a30db19c8073fa298e63ec681c9a,Form,23,0,nst,NULL,_REACTION_TIME_,9147
1524172279,3a89a30db19c8073fa298e63ec681c9a,Form,6,0,exit_quest,NULL,know_conditons,He found it at the store
1524172279,3a89a30db19c8073fa298e63ec681c9a,Form,6,0,exit_quest,NULL,know_conditons,he can find it at the store
1524172279,3a89a30db19c8073fa298e63ec681c9a,Form,6,0,exit_quest,NULL,difficult,yes i found this task somewhat hard because there seemed to be multiple answers to me
1524172279,3a89a30db19c8073fa298e63ec681c9a,Form,6,0,exit_quest,NULL,anything_else,everything worked fine.
1524172279,3a89a30db19c8073fa298e63ec681c9a,Form,6,0,exit_quest,NULL,dummy_checkbox_,yes
1524172279,3a89a30db19c8073fa298e63ec681c9a,Form,6,0,exit_quest,NULL,_REACTION_TIME_,53182
#
# Results on Thursday April 19 2018 21:12:44 UTC.
# USER AGENT: Mozilla/5.0 (Windows NT 6.1; Win64; x64) AppleWebKit/537.36 (KHTML, like Gecko) Chrome/65.0.3325.181 Safari/537.36
# Design number was non-random = 74
#
# Columns below this comment are as follows:
# 1. Time results were received.
# 2. MD5 hash of participant's IP address.
# 3. Controller name.
# 4. Item number.
# 5. Element number.
# 6. Type.
# 7. Group.
# 8. Field name.
# 9. Field value.
1524172364,6d6b7cccad75d398c8c2c66d078f0551,Form,2,0,consent,NULL,subject_id,A2YGAEODJ5SSF6
1524172364,6d6b7cccad75d398c8c2c66d078f0551,Form,2,0,consent,NULL,native_lang,English 
1524172364,6d6b7cccad75d398c8c2c66d078f0551,Form,2,0,consent,NULL,age,41 
1524172364,6d6b7cccad75d398c8c2c66d078f0551,Form,2,0,consent,NULL,consent_checkbox_,yes
1524172364,6d6b7cccad75d398c8c2c66d078f0551,Form,2,0,consent,NULL,dummy_checkbox_,yes
1524172364,6d6b7cccad75d398c8c2c66d078f0551,Form,2,0,consent,NULL,sex,male
1524172364,6d6b7cccad75d398c8c2c66d078f0551,Form,2,0,consent,NULL,_REACTION_TIME_,15988
1524172364,6d6b7cccad75d398c8c2c66d078f0551,Form,1,0,instructions,NULL,dummy_checkbox_,yes
1524172364,6d6b7cccad75d398c8c2c66d078f0551,Form,1,0,instructions,NULL,_REACTION_TIME_,10962
1524172364,6d6b7cccad75d398c8c2c66d078f0551,Form,4,0,train,NULL,train_m_A_chosen,no
1524172364,6d6b7cccad75d398c8c2c66d078f0551,Form,4,0,train,NULL,train_m_B_chosen,no
1524172364,6d6b7cccad75d398c8c2c66d078f0551,Form,4,0,train,NULL,train_m_C_chosen,yes
1524172364,6d6b7cccad75d398c8c2c66d078f0551,Form,4,0,train,NULL,none_chosen,no
1524172364,6d6b7cccad75d398c8c2c66d078f0551,Form,4,0,train,NULL,_REACTION_TIME_,37863
1524172364,6d6b7cccad75d398c8c2c66d078f0551,Form,3,0,train,NULL,train_f_A_chosen,no
1524172364,6d6b7cccad75d398c8c2c66d078f0551,Form,3,0,train,NULL,train_f_B_chosen,no
1524172364,6d6b7cccad75d398c8c2c66d078f0551,Form,3,0,train,NULL,train_f_C_chosen,no
1524172364,6d6b7cccad75d398c8c2c66d078f0551,Form,3,0,train,NULL,none_chosen,yes
1524172364,6d6b7cccad75d398c8c2c66d078f0551,Form,3,0,train,NULL,_REACTION_TIME_,36619
1524172364,6d6b7cccad75d398c8c2c66d078f0551,Form,5,0,train_end,NULL,dummy_checkbox_,yes
1524172364,6d6b7cccad75d398c8c2c66d078f0551,Form,5,0,train_end,NULL,_REACTION_TIME_,1708
1524172364,6d6b7cccad75d398c8c2c66d078f0551,Form,17,0,low,NULL,answers_reported,placeholderBrother 1 says%2C "Stalls C%2C D%2C A%2C F and B."%2CBrother 2 says%2C "Stalls C and D."%2CBrother 3 says%2C "Stalls A and B."
1524172364,6d6b7cccad75d398c8c2c66d078f0551,Form,17,0,low,NULL,brother_A_chosen,no
1524172364,6d6b7cccad75d398c8c2c66d078f0551,Form,17,0,low,NULL,brother_B_chosen,yes
1524172364,6d6b7cccad75d398c8c2c66d078f0551,Form,17,0,low,NULL,brother_C_chosen,no
1524172364,6d6b7cccad75d398c8c2c66d078f0551,Form,17,0,low,NULL,no_one_chosen,no
1524172364,6d6b7cccad75d398c8c2c66d078f0551,Form,17,0,low,NULL,_REACTION_TIME_,33714
1524172364,6d6b7cccad75d398c8c2c66d078f0551,Form,12,0,high,NULL,answers_reported,placeholderInvestigator 1 says%2C "Place D."%2CInvestigator 2 says%2C "Place F."%2CInvestigator 3 says%2C "Place E."
1524172364,6d6b7cccad75d398c8c2c66d078f0551,Form,12,0,high,NULL,fbi_investigator_A_chosen,no
1524172364,6d6b7cccad75d398c8c2c66d078f0551,Form,12,0,high,NULL,fbi_investigator_B_chosen,yes
1524172364,6d6b7cccad75d398c8c2c66d078f0551,Form,12,0,high,NULL,fbi_investigator_C_chosen,no
1524172364,6d6b7cccad75d398c8c2c66d078f0551,Form,12,0,high,NULL,no_one_chosen,no
1524172364,6d6b7cccad75d398c8c2c66d078f0551,Form,12,0,high,NULL,_REACTION_TIME_,22375
1524172364,6d6b7cccad75d398c8c2c66d078f0551,Form,14,0,low,NULL,answers_reported,placeholderFriend 1 says%2C "Diner C."%2CFriend 2 says%2C "Diners C and F."%2CFriend 3 says%2C "Diner B."
1524172364,6d6b7cccad75d398c8c2c66d078f0551,Form,14,0,low,NULL,la_friend_A_chosen,yes
1524172364,6d6b7cccad75d398c8c2c66d078f0551,Form,14,0,low,NULL,la_friend_B_chosen,yes
1524172364,6d6b7cccad75d398c8c2c66d078f0551,Form,14,0,low,NULL,la_friend_C_chosen,no
1524172364,6d6b7cccad75d398c8c2c66d078f0551,Form,14,0,low,NULL,no_one_chosen,no
1524172364,6d6b7cccad75d398c8c2c66d078f0551,Form,14,0,low,NULL,_REACTION_TIME_,13581
1524172364,6d6b7cccad75d398c8c2c66d078f0551,Form,25,0,nst,NULL,NST_4a_chosen,no
1524172364,6d6b7cccad75d398c8c2c66d078f0551,Form,25,0,nst,NULL,NST_4b_chosen,yes
1524172364,6d6b7cccad75d398c8c2c66d078f0551,Form,25,0,nst,NULL,_REACTION_TIME_,7153
1524172364,6d6b7cccad75d398c8c2c66d078f0551,Form,19,0,control,NULL,what_A_chosen,yes
1524172364,6d6b7cccad75d398c8c2c66d078f0551,Form,19,0,control,NULL,what_B_chosen,no
1524172364,6d6b7cccad75d398c8c2c66d078f0551,Form,19,0,control,NULL,what_C_chosen,no
1524172364,6d6b7cccad75d398c8c2c66d078f0551,Form,19,0,control,NULL,none_chosen,no
1524172364,6d6b7cccad75d398c8c2c66d078f0551,Form,19,0,control,NULL,_REACTION_TIME_,25469
1524172364,6d6b7cccad75d398c8c2c66d078f0551,Form,8,0,high,NULL,answers_reported,placeholderInspector 1 says%2C "Restaurants C and E."%2CInspector 2 says%2C "Restaurants A and B."%2CInspector 3 says%2C "Restaurant F."
1524172364,6d6b7cccad75d398c8c2c66d078f0551,Form,8,0,high,NULL,inspector_A_chosen,yes
1524172364,6d6b7cccad75d398c8c2c66d078f0551,Form,8,0,high,NULL,inspector_B_chosen,yes
1524172364,6d6b7cccad75d398c8c2c66d078f0551,Form,8,0,high,NULL,inspector_C_chosen,no
1524172364,6d6b7cccad75d398c8c2c66d078f0551,Form,8,0,high,NULL,no_one_chosen,no
1524172364,6d6b7cccad75d398c8c2c66d078f0551,Form,8,0,high,NULL,_REACTION_TIME_,26442
1524172364,6d6b7cccad75d398c8c2c66d078f0551,Form,16,0,low,NULL,answers_reported,placeholderCoworker 1 says%2C "Studio A."%2CCoworker 2 says%2C "Studios F and E."%2CCoworker 3 says%2C "Studio B."
1524172364,6d6b7cccad75d398c8c2c66d078f0551,Form,16,0,low,NULL,yoga_coworker_A_chosen,no
1524172364,6d6b7cccad75d398c8c2c66d078f0551,Form,16,0,low,NULL,yoga_coworker_B_chosen,yes
1524172364,6d6b7cccad75d398c8c2c66d078f0551,Form,16,0,low,NULL,yoga_coworker_C_chosen,no
1524172364,6d6b7cccad75d398c8c2c66d078f0551,Form,16,0,low,NULL,no_one_chosen,no
1524172364,6d6b7cccad75d398c8c2c66d078f0551,Form,16,0,low,NULL,_REACTION_TIME_,33390
1524172364,6d6b7cccad75d398c8c2c66d078f0551,Form,23,0,nst,NULL,NST_2a_chosen,yes
1524172364,6d6b7cccad75d398c8c2c66d078f0551,Form,23,0,nst,NULL,NST_2b_chosen,yes
1524172364,6d6b7cccad75d398c8c2c66d078f0551,Form,23,0,nst,NULL,NST_2c_chosen,no
1524172364,6d6b7cccad75d398c8c2c66d078f0551,Form,23,0,nst,NULL,NST_2d_chosen,no
1524172364,6d6b7cccad75d398c8c2c66d078f0551,Form,23,0,nst,NULL,NST_2e_chosen,no
1524172364,6d6b7cccad75d398c8c2c66d078f0551,Form,23,0,nst,NULL,_REACTION_TIME_,33822
1524172364,6d6b7cccad75d398c8c2c66d078f0551,Form,18,0,control,NULL,why_A_chosen,yes
1524172364,6d6b7cccad75d398c8c2c66d078f0551,Form,18,0,control,NULL,why_B_chosen,yes
1524172364,6d6b7cccad75d398c8c2c66d078f0551,Form,18,0,control,NULL,why_C_chosen,no
1524172364,6d6b7cccad75d398c8c2c66d078f0551,Form,18,0,control,NULL,none_chosen,no
1524172364,6d6b7cccad75d398c8c2c66d078f0551,Form,18,0,control,NULL,_REACTION_TIME_,21927
1524172364,6d6b7cccad75d398c8c2c66d078f0551,Form,10,0,high,NULL,answers_reported,placeholderOperative 1 says%2C "The North district."%2COperative 2 says%2C "The Northeast and Southwest districts."%2COperative 3 says%2C "The Northeast district."
1524172364,6d6b7cccad75d398c8c2c66d078f0551,Form,10,0,high,NULL,operative_A_chosen,no
1524172364,6d6b7cccad75d398c8c2c66d078f0551,Form,10,0,high,NULL,operative_B_chosen,yes
1524172364,6d6b7cccad75d398c8c2c66d078f0551,Form,10,0,high,NULL,operative_C_chosen,no
1524172364,6d6b7cccad75d398c8c2c66d078f0551,Form,10,0,high,NULL,no_one_chosen,no
1524172364,6d6b7cccad75d398c8c2c66d078f0551,Form,10,0,high,NULL,_REACTION_TIME_,35657
1524172364,6d6b7cccad75d398c8c2c66d078f0551,Form,15,0,low,NULL,answers_reported,placeholderClassmate 1 says%2C "Cafe D."%2CClassmate 2 says%2C "Cafe E."%2CClassmate 3 says%2C "Cafes F and D."
1524172364,6d6b7cccad75d398c8c2c66d078f0551,Form,15,0,low,NULL,coffee_classmate_A_chosen,no
1524172364,6d6b7cccad75d398c8c2c66d078f0551,Form,15,0,low,NULL,coffee_classmate_B_chosen,yes
1524172364,6d6b7cccad75d398c8c2c66d078f0551,Form,15,0,low,NULL,coffee_classmate_C_chosen,no
1524172364,6d6b7cccad75d398c8c2c66d078f0551,Form,15,0,low,NULL,no_one_chosen,no
1524172364,6d6b7cccad75d398c8c2c66d078f0551,Form,15,0,low,NULL,_REACTION_TIME_,41424
1524172364,6d6b7cccad75d398c8c2c66d078f0551,Form,9,0,high,NULL,answers_reported,placeholderFirefighter 1 says%2C "The sixth floor."%2CFirefighter 2 says%2C "The fifth floor."%2CFirefighter 3 says%2C "The fifth%2C second%2C fourth%2C third and sixth floors."
1524172364,6d6b7cccad75d398c8c2c66d078f0551,Form,9,0,high,NULL,firefighter_A_chosen,yes
1524172364,6d6b7cccad75d398c8c2c66d078f0551,Form,9,0,high,NULL,firefighter_B_chosen,yes
1524172364,6d6b7cccad75d398c8c2c66d078f0551,Form,9,0,high,NULL,firefighter_C_chosen,yes
1524172364,6d6b7cccad75d398c8c2c66d078f0551,Form,9,0,high,NULL,no_one_chosen,no
1524172364,6d6b7cccad75d398c8c2c66d078f0551,Form,9,0,high,NULL,_REACTION_TIME_,27893
1524172364,6d6b7cccad75d398c8c2c66d078f0551,Form,22,0,nst,NULL,NST_1a_chosen,yes
1524172364,6d6b7cccad75d398c8c2c66d078f0551,Form,22,0,nst,NULL,NST_1b_chosen,no
1524172364,6d6b7cccad75d398c8c2c66d078f0551,Form,22,0,nst,NULL,NST_1c_chosen,no
1524172364,6d6b7cccad75d398c8c2c66d078f0551,Form,22,0,nst,NULL,NST_1d_chosen,yes
1524172364,6d6b7cccad75d398c8c2c66d078f0551,Form,22,0,nst,NULL,_REACTION_TIME_,12042
1524172364,6d6b7cccad75d398c8c2c66d078f0551,Form,20,0,control,NULL,when_A_chosen,no
1524172364,6d6b7cccad75d398c8c2c66d078f0551,Form,20,0,control,NULL,when_B_chosen,no
1524172364,6d6b7cccad75d398c8c2c66d078f0551,Form,20,0,control,NULL,when_C_chosen,no
1524172364,6d6b7cccad75d398c8c2c66d078f0551,Form,20,0,control,NULL,none_chosen,yes
1524172364,6d6b7cccad75d398c8c2c66d078f0551,Form,20,0,control,NULL,_REACTION_TIME_,18427
1524172364,6d6b7cccad75d398c8c2c66d078f0551,Form,13,0,low,NULL,answers_reported,placeholderCousin 1 says%2C "Location F."%2CCousin 2 says%2C "Locations D and F."%2CCousin 3 says%2C "Location B."
1524172364,6d6b7cccad75d398c8c2c66d078f0551,Form,13,0,low,NULL,pic_cousin_A_chosen,no
1524172364,6d6b7cccad75d398c8c2c66d078f0551,Form,13,0,low,NULL,pic_cousin_B_chosen,no
1524172364,6d6b7cccad75d398c8c2c66d078f0551,Form,13,0,low,NULL,pic_cousin_C_chosen,no
1524172364,6d6b7cccad75d398c8c2c66d078f0551,Form,13,0,low,NULL,no_one_chosen,yes
1524172364,6d6b7cccad75d398c8c2c66d078f0551,Form,13,0,low,NULL,_REACTION_TIME_,19010
1524172364,6d6b7cccad75d398c8c2c66d078f0551,Form,11,0,high,NULL,answers_reported,placeholderAdvisor 1 says%2C "Store E."%2CAdvisor 2 says%2C "Stores E and B."%2CAdvisor 3 says%2C "Stores A and F."
1524172364,6d6b7cccad75d398c8c2c66d078f0551,Form,11,0,high,NULL,terrorism_advisor_A_chosen,yes
1524172364,6d6b7cccad75d398c8c2c66d078f0551,Form,11,0,high,NULL,terrorism_advisor_B_chosen,no
1524172364,6d6b7cccad75d398c8c2c66d078f0551,Form,11,0,high,NULL,terrorism_advisor_C_chosen,no
1524172364,6d6b7cccad75d398c8c2c66d078f0551,Form,11,0,high,NULL,no_one_chosen,no
1524172364,6d6b7cccad75d398c8c2c66d078f0551,Form,11,0,high,NULL,_REACTION_TIME_,14694
1524172364,6d6b7cccad75d398c8c2c66d078f0551,Form,24,0,nst,NULL,NST_3a_chosen,yes
1524172364,6d6b7cccad75d398c8c2c66d078f0551,Form,24,0,nst,NULL,NST_3b_chosen,no
1524172364,6d6b7cccad75d398c8c2c66d078f0551,Form,24,0,nst,NULL,NST_3c_chosen,no
1524172364,6d6b7cccad75d398c8c2c66d078f0551,Form,24,0,nst,NULL,NST_3d_chosen,yes
1524172364,6d6b7cccad75d398c8c2c66d078f0551,Form,24,0,nst,NULL,NST_3e_chosen,no
1524172364,6d6b7cccad75d398c8c2c66d078f0551,Form,24,0,nst,NULL,_REACTION_TIME_,25098
1524172364,6d6b7cccad75d398c8c2c66d078f0551,Form,21,0,control,NULL,how_guest_A_chosen,no
1524172364,6d6b7cccad75d398c8c2c66d078f0551,Form,21,0,control,NULL,how_guest_B_chosen,yes
1524172364,6d6b7cccad75d398c8c2c66d078f0551,Form,21,0,control,NULL,how_guest_C_chosen,no
1524172364,6d6b7cccad75d398c8c2c66d078f0551,Form,21,0,control,NULL,none_chosen,no
1524172364,6d6b7cccad75d398c8c2c66d078f0551,Form,21,0,control,NULL,_REACTION_TIME_,35988
1524172364,6d6b7cccad75d398c8c2c66d078f0551,Form,6,0,exit_quest,NULL,know_conditons,The coffee shop
1524172364,6d6b7cccad75d398c8c2c66d078f0551,Form,6,0,exit_quest,NULL,know_conditons,At the store
1524172364,6d6b7cccad75d398c8c2c66d078f0551,Form,6,0,exit_quest,NULL,difficult,Not really because the answers seemed fairly straight forward 
1524172364,6d6b7cccad75d398c8c2c66d078f0551,Form,6,0,exit_quest,NULL,anything_else,no
1524172364,6d6b7cccad75d398c8c2c66d078f0551,Form,6,0,exit_quest,NULL,dummy_checkbox_,yes
1524172364,6d6b7cccad75d398c8c2c66d078f0551,Form,6,0,exit_quest,NULL,_REACTION_TIME_,27491
#
# Results on Thursday April 19 2018 21:14:08 UTC.
# USER AGENT: Mozilla/5.0 (Windows NT 10.0; Win64; x64) AppleWebKit/537.36 (KHTML, like Gecko) Chrome/65.0.3325.181 Safari/537.36
# Design number was non-random = 74
#
# Columns below this comment are as follows:
# 1. Time results were received.
# 2. MD5 hash of participant's IP address.
# 3. Controller name.
# 4. Item number.
# 5. Element number.
# 6. Type.
# 7. Group.
# 8. Field name.
# 9. Field value.
1524172449,69e5e570b7a5f87790b580b6e28c37ad,Form,2,0,consent,NULL,subject_id,A2DVJ6OMVVYTC7
1524172449,69e5e570b7a5f87790b580b6e28c37ad,Form,2,0,consent,NULL,native_lang,English
1524172449,69e5e570b7a5f87790b580b6e28c37ad,Form,2,0,consent,NULL,age,29
1524172449,69e5e570b7a5f87790b580b6e28c37ad,Form,2,0,consent,NULL,consent_checkbox_,yes
1524172449,69e5e570b7a5f87790b580b6e28c37ad,Form,2,0,consent,NULL,dummy_checkbox_,yes
1524172449,69e5e570b7a5f87790b580b6e28c37ad,Form,2,0,consent,NULL,sex,male
1524172449,69e5e570b7a5f87790b580b6e28c37ad,Form,2,0,consent,NULL,_REACTION_TIME_,40006
1524172449,69e5e570b7a5f87790b580b6e28c37ad,Form,1,0,instructions,NULL,dummy_checkbox_,yes
1524172449,69e5e570b7a5f87790b580b6e28c37ad,Form,1,0,instructions,NULL,_REACTION_TIME_,65594
1524172449,69e5e570b7a5f87790b580b6e28c37ad,Form,4,0,train,NULL,train_m_A_chosen,no
1524172449,69e5e570b7a5f87790b580b6e28c37ad,Form,4,0,train,NULL,train_m_B_chosen,yes
1524172449,69e5e570b7a5f87790b580b6e28c37ad,Form,4,0,train,NULL,train_m_C_chosen,yes
1524172449,69e5e570b7a5f87790b580b6e28c37ad,Form,4,0,train,NULL,none_chosen,no
1524172449,69e5e570b7a5f87790b580b6e28c37ad,Form,4,0,train,NULL,_REACTION_TIME_,32965
1524172449,69e5e570b7a5f87790b580b6e28c37ad,Form,3,0,train,NULL,train_f_A_chosen,no
1524172449,69e5e570b7a5f87790b580b6e28c37ad,Form,3,0,train,NULL,train_f_B_chosen,no
1524172449,69e5e570b7a5f87790b580b6e28c37ad,Form,3,0,train,NULL,train_f_C_chosen,no
1524172449,69e5e570b7a5f87790b580b6e28c37ad,Form,3,0,train,NULL,none_chosen,yes
1524172449,69e5e570b7a5f87790b580b6e28c37ad,Form,3,0,train,NULL,_REACTION_TIME_,32151
1524172449,69e5e570b7a5f87790b580b6e28c37ad,Form,5,0,train_end,NULL,dummy_checkbox_,yes
1524172449,69e5e570b7a5f87790b580b6e28c37ad,Form,5,0,train_end,NULL,_REACTION_TIME_,2015
1524172449,69e5e570b7a5f87790b580b6e28c37ad,Form,13,0,low,NULL,answers_reported,placeholderCousin 1 says%2C "Locations A%2C D%2C E%2C and F."%2CCousin 2 says%2C "Location F."%2CCousin 3 says%2C "Locations A and D."
1524172449,69e5e570b7a5f87790b580b6e28c37ad,Form,13,0,low,NULL,pic_cousin_A_chosen,no
1524172449,69e5e570b7a5f87790b580b6e28c37ad,Form,13,0,low,NULL,pic_cousin_B_chosen,no
1524172449,69e5e570b7a5f87790b580b6e28c37ad,Form,13,0,low,NULL,pic_cousin_C_chosen,yes
1524172449,69e5e570b7a5f87790b580b6e28c37ad,Form,13,0,low,NULL,no_one_chosen,no
1524172449,69e5e570b7a5f87790b580b6e28c37ad,Form,13,0,low,NULL,_REACTION_TIME_,39646
1524172449,69e5e570b7a5f87790b580b6e28c37ad,Form,12,0,high,NULL,answers_reported,placeholderInvestigator 1 says%2C "Place F."%2CInvestigator 2 says%2C "Place E."%2CInvestigator 3 says%2C "Places F%2C A%2C B%2C C and E."
1524172449,69e5e570b7a5f87790b580b6e28c37ad,Form,12,0,high,NULL,fbi_investigator_A_chosen,no
1524172449,69e5e570b7a5f87790b580b6e28c37ad,Form,12,0,high,NULL,fbi_investigator_B_chosen,no
1524172449,69e5e570b7a5f87790b580b6e28c37ad,Form,12,0,high,NULL,fbi_investigator_C_chosen,yes
1524172449,69e5e570b7a5f87790b580b6e28c37ad,Form,12,0,high,NULL,no_one_chosen,no
1524172449,69e5e570b7a5f87790b580b6e28c37ad,Form,12,0,high,NULL,_REACTION_TIME_,21885
1524172449,69e5e570b7a5f87790b580b6e28c37ad,Form,14,0,low,NULL,answers_reported,placeholderFriend 1 says%2C "Diner E."%2CFriend 2 says%2C "Diner C."%2CFriend 3 says%2C "Diners A and E."
1524172449,69e5e570b7a5f87790b580b6e28c37ad,Form,14,0,low,NULL,la_friend_A_chosen,no
1524172449,69e5e570b7a5f87790b580b6e28c37ad,Form,14,0,low,NULL,la_friend_B_chosen,yes
1524172449,69e5e570b7a5f87790b580b6e28c37ad,Form,14,0,low,NULL,la_friend_C_chosen,no
1524172449,69e5e570b7a5f87790b580b6e28c37ad,Form,14,0,low,NULL,no_one_chosen,no
1524172449,69e5e570b7a5f87790b580b6e28c37ad,Form,14,0,low,NULL,_REACTION_TIME_,28142
1524172449,69e5e570b7a5f87790b580b6e28c37ad,Form,22,0,nst,NULL,NST_1a_chosen,yes
1524172449,69e5e570b7a5f87790b580b6e28c37ad,Form,22,0,nst,NULL,NST_1b_chosen,no
1524172449,69e5e570b7a5f87790b580b6e28c37ad,Form,22,0,nst,NULL,NST_1c_chosen,no
1524172449,69e5e570b7a5f87790b580b6e28c37ad,Form,22,0,nst,NULL,NST_1d_chosen,no
1524172449,69e5e570b7a5f87790b580b6e28c37ad,Form,22,0,nst,NULL,_REACTION_TIME_,13638
1524172449,69e5e570b7a5f87790b580b6e28c37ad,Form,19,0,control,NULL,what_A_chosen,yes
1524172449,69e5e570b7a5f87790b580b6e28c37ad,Form,19,0,control,NULL,what_B_chosen,no
1524172449,69e5e570b7a5f87790b580b6e28c37ad,Form,19,0,control,NULL,what_C_chosen,no
1524172449,69e5e570b7a5f87790b580b6e28c37ad,Form,19,0,control,NULL,none_chosen,no
1524172449,69e5e570b7a5f87790b580b6e28c37ad,Form,19,0,control,NULL,_REACTION_TIME_,22295
1524172449,69e5e570b7a5f87790b580b6e28c37ad,Form,8,0,high,NULL,answers_reported,placeholderInspector 1 says%2C "Restaurant F."%2CInspector 2 says%2C "Restaurants C and E."%2CInspector 3 says%2C "Restaurants A and B."
1524172449,69e5e570b7a5f87790b580b6e28c37ad,Form,8,0,high,NULL,inspector_A_chosen,no
1524172449,69e5e570b7a5f87790b580b6e28c37ad,Form,8,0,high,NULL,inspector_B_chosen,no
1524172449,69e5e570b7a5f87790b580b6e28c37ad,Form,8,0,high,NULL,inspector_C_chosen,yes
1524172449,69e5e570b7a5f87790b580b6e28c37ad,Form,8,0,high,NULL,no_one_chosen,no
1524172449,69e5e570b7a5f87790b580b6e28c37ad,Form,8,0,high,NULL,_REACTION_TIME_,36165
1524172449,69e5e570b7a5f87790b580b6e28c37ad,Form,17,0,low,NULL,answers_reported,placeholderBrother 1 says%2C "Stall C."%2CBrother 2 says%2C "Stalls A and B."%2CBrother 3 says%2C "Stall B."
1524172449,69e5e570b7a5f87790b580b6e28c37ad,Form,17,0,low,NULL,brother_A_chosen,yes
1524172449,69e5e570b7a5f87790b580b6e28c37ad,Form,17,0,low,NULL,brother_B_chosen,no
1524172449,69e5e570b7a5f87790b580b6e28c37ad,Form,17,0,low,NULL,brother_C_chosen,no
1524172449,69e5e570b7a5f87790b580b6e28c37ad,Form,17,0,low,NULL,no_one_chosen,no
1524172449,69e5e570b7a5f87790b580b6e28c37ad,Form,17,0,low,NULL,_REACTION_TIME_,31765
1524172449,69e5e570b7a5f87790b580b6e28c37ad,Form,23,0,nst,NULL,NST_2a_chosen,yes
1524172449,69e5e570b7a5f87790b580b6e28c37ad,Form,23,0,nst,NULL,NST_2b_chosen,no
1524172449,69e5e570b7a5f87790b580b6e28c37ad,Form,23,0,nst,NULL,NST_2c_chosen,no
1524172449,69e5e570b7a5f87790b580b6e28c37ad,Form,23,0,nst,NULL,NST_2d_chosen,no
1524172449,69e5e570b7a5f87790b580b6e28c37ad,Form,23,0,nst,NULL,NST_2e_chosen,no
1524172449,69e5e570b7a5f87790b580b6e28c37ad,Form,23,0,nst,NULL,_REACTION_TIME_,11486
1524172449,69e5e570b7a5f87790b580b6e28c37ad,Form,21,0,control,NULL,how_guest_A_chosen,no
1524172449,69e5e570b7a5f87790b580b6e28c37ad,Form,21,0,control,NULL,how_guest_B_chosen,no
1524172449,69e5e570b7a5f87790b580b6e28c37ad,Form,21,0,control,NULL,how_guest_C_chosen,yes
1524172449,69e5e570b7a5f87790b580b6e28c37ad,Form,21,0,control,NULL,none_chosen,no
1524172449,69e5e570b7a5f87790b580b6e28c37ad,Form,21,0,control,NULL,_REACTION_TIME_,18820
1524172449,69e5e570b7a5f87790b580b6e28c37ad,Form,11,0,high,NULL,answers_reported,placeholderAdvisor 1 says%2C "Store F."%2CAdvisor 2 says%2C "Stores E and B."%2CAdvisor 3 says%2C "Stores A and F."
1524172449,69e5e570b7a5f87790b580b6e28c37ad,Form,11,0,high,NULL,terrorism_advisor_A_chosen,no
1524172449,69e5e570b7a5f87790b580b6e28c37ad,Form,11,0,high,NULL,terrorism_advisor_B_chosen,yes
1524172449,69e5e570b7a5f87790b580b6e28c37ad,Form,11,0,high,NULL,terrorism_advisor_C_chosen,no
1524172449,69e5e570b7a5f87790b580b6e28c37ad,Form,11,0,high,NULL,no_one_chosen,no
1524172449,69e5e570b7a5f87790b580b6e28c37ad,Form,11,0,high,NULL,_REACTION_TIME_,15335
1524172449,69e5e570b7a5f87790b580b6e28c37ad,Form,16,0,low,NULL,answers_reported,placeholderCoworker 1 says%2C "Studios F and E."%2CCoworker 2 says%2C "Studios F%2C E%2C D%2C C and B."%2CCoworker 3 says%2C "Studio F."
1524172449,69e5e570b7a5f87790b580b6e28c37ad,Form,16,0,low,NULL,yoga_coworker_A_chosen,yes
1524172449,69e5e570b7a5f87790b580b6e28c37ad,Form,16,0,low,NULL,yoga_coworker_B_chosen,no
1524172449,69e5e570b7a5f87790b580b6e28c37ad,Form,16,0,low,NULL,yoga_coworker_C_chosen,no
1524172449,69e5e570b7a5f87790b580b6e28c37ad,Form,16,0,low,NULL,no_one_chosen,no
1524172449,69e5e570b7a5f87790b580b6e28c37ad,Form,16,0,low,NULL,_REACTION_TIME_,9262
1524172449,69e5e570b7a5f87790b580b6e28c37ad,Form,10,0,high,NULL,answers_reported,placeholderOperative 1 says%2C "The Northeast district."%2COperative 2 says%2C "The Northeast and Southwest districts."%2COperative 3 says%2C "The North district."
1524172449,69e5e570b7a5f87790b580b6e28c37ad,Form,10,0,high,NULL,operative_A_chosen,no
1524172449,69e5e570b7a5f87790b580b6e28c37ad,Form,10,0,high,NULL,operative_B_chosen,yes
1524172449,69e5e570b7a5f87790b580b6e28c37ad,Form,10,0,high,NULL,operative_C_chosen,no
1524172449,69e5e570b7a5f87790b580b6e28c37ad,Form,10,0,high,NULL,no_one_chosen,no
1524172449,69e5e570b7a5f87790b580b6e28c37ad,Form,10,0,high,NULL,_REACTION_TIME_,12110
1524172449,69e5e570b7a5f87790b580b6e28c37ad,Form,24,0,nst,NULL,NST_3a_chosen,no
1524172449,69e5e570b7a5f87790b580b6e28c37ad,Form,24,0,nst,NULL,NST_3b_chosen,no
1524172449,69e5e570b7a5f87790b580b6e28c37ad,Form,24,0,nst,NULL,NST_3c_chosen,no
1524172449,69e5e570b7a5f87790b580b6e28c37ad,Form,24,0,nst,NULL,NST_3d_chosen,yes
1524172449,69e5e570b7a5f87790b580b6e28c37ad,Form,24,0,nst,NULL,NST_3e_chosen,no
1524172449,69e5e570b7a5f87790b580b6e28c37ad,Form,24,0,nst,NULL,_REACTION_TIME_,13173
1524172449,69e5e570b7a5f87790b580b6e28c37ad,Form,18,0,control,NULL,why_A_chosen,yes
1524172449,69e5e570b7a5f87790b580b6e28c37ad,Form,18,0,control,NULL,why_B_chosen,no
1524172449,69e5e570b7a5f87790b580b6e28c37ad,Form,18,0,control,NULL,why_C_chosen,no
1524172449,69e5e570b7a5f87790b580b6e28c37ad,Form,18,0,control,NULL,none_chosen,no
1524172449,69e5e570b7a5f87790b580b6e28c37ad,Form,18,0,control,NULL,_REACTION_TIME_,19703
1524172449,69e5e570b7a5f87790b580b6e28c37ad,Form,15,0,low,NULL,answers_reported,placeholderClassmate 1 says%2C "Cafes E and B."%2CClassmate 2 says%2C "Cafe D."%2CClassmate 3 says%2C "Cafes E%2C B%2C F%2C C and D."
1524172449,69e5e570b7a5f87790b580b6e28c37ad,Form,15,0,low,NULL,coffee_classmate_A_chosen,yes
1524172449,69e5e570b7a5f87790b580b6e28c37ad,Form,15,0,low,NULL,coffee_classmate_B_chosen,no
1524172449,69e5e570b7a5f87790b580b6e28c37ad,Form,15,0,low,NULL,coffee_classmate_C_chosen,no
1524172449,69e5e570b7a5f87790b580b6e28c37ad,Form,15,0,low,NULL,no_one_chosen,no
1524172449,69e5e570b7a5f87790b580b6e28c37ad,Form,15,0,low,NULL,_REACTION_TIME_,6054
1524172449,69e5e570b7a5f87790b580b6e28c37ad,Form,9,0,high,NULL,answers_reported,placeholderFirefighter 1 says%2C "The fifth%2C second%2C fourth%2C third and sixth floors."%2CFirefighter 2 says%2C "The fourth and sixth floors."%2CFirefighter 3 says%2C "The first floor."
1524172449,69e5e570b7a5f87790b580b6e28c37ad,Form,9,0,high,NULL,firefighter_A_chosen,yes
1524172449,69e5e570b7a5f87790b580b6e28c37ad,Form,9,0,high,NULL,firefighter_B_chosen,no
1524172449,69e5e570b7a5f87790b580b6e28c37ad,Form,9,0,high,NULL,firefighter_C_chosen,no
1524172449,69e5e570b7a5f87790b580b6e28c37ad,Form,9,0,high,NULL,no_one_chosen,no
1524172449,69e5e570b7a5f87790b580b6e28c37ad,Form,9,0,high,NULL,_REACTION_TIME_,10676
1524172449,69e5e570b7a5f87790b580b6e28c37ad,Form,25,0,nst,NULL,NST_4a_chosen,no
1524172449,69e5e570b7a5f87790b580b6e28c37ad,Form,25,0,nst,NULL,NST_4b_chosen,yes
1524172449,69e5e570b7a5f87790b580b6e28c37ad,Form,25,0,nst,NULL,_REACTION_TIME_,11742
