"","subject","native_lang","age","gender","trial","story","reaction_time","response_a","response_b","response_c","response_d","report_a","report_b","report_c","tag_a","tag_b","tag_c","exhaustive_seen","mention_one_high_seen","mention_one_low_seen","mention_some_high_seen","mention_some_low_seen","false_report_seen","none_of_above_seen","exhaustive_chosen","mention_one_high_chosen","mention_one_low_chosen","mention_some_high_chosen","mention_some_low_chosen","false_report_chosen","none_of_above_chosen"
"4","A1LOUZD99NZCT2","english",29,"male","high","high_inspector",3397,"0","1","1",0,"Restaurants A and B.","Restaurant E.","Restaurants A, B, C, D, and E.","ms-h","mo-l","exh",1,0,1,1,0,0,1,1,0,1,0,0,0,0
"5","A1LOUZD99NZCT2","english",29,"male","low","low_brother",1717,"1","0","0",0,"Stall C.","Stalls C and D.","Stalls A and B.","mo-h","ms-h","ms-l",0,1,0,1,1,0,1,0,1,0,0,0,0,0
"7","A1LOUZD99NZCT2","english",29,"male","high","high_fbi",1945,"0","0","1",0,"Place D.","Places F and A.","Place E.","f","ms-h","mo-l",0,0,1,1,0,1,1,0,0,1,0,0,0,0
"8","A1LOUZD99NZCT2","english",29,"male","low","low_yoga",1945,"1","0","1",0,"Studios F, E, D, C and B.","Studios C and B.","Studio F.","exh","ms-l","mo-h",1,1,0,0,1,0,1,1,1,0,0,0,0,0
"10","A1LOUZD99NZCT2","english",29,"male","high","high_firefighter",2238,"0","0","1",0,"The fourth and sixth floors.","The fifth and second floors.","The fifth, second, fourth, third and sixth floors.","ms-l","ms-h","exh",1,0,0,1,1,0,1,1,0,0,0,0,0,0
"11","A1LOUZD99NZCT2","english",29,"male","low","low_pic",3260,"1","1","0",0,"Locations A and D.","Location A.","Location F.","ms-h","mo-h","mo-l",0,1,1,1,0,0,1,0,1,0,1,0,0,0
"12","A1LOUZD99NZCT2","english",29,"male","high","high_terrorism",2193,"0","0","1",0,"Store F.","Stores A and F.","Store E.","mo-l","ms-l","mo-h",0,1,1,0,1,0,1,0,1,0,0,0,0,0
"14","A1LOUZD99NZCT2","english",29,"male","low","low_coffee",3982,"1","0","1",0,"Cafes E, B, F, C and D.","Cafe E.","Cafes F and D.","exh","mo-h","ms-l",1,1,0,0,1,0,1,1,0,0,0,1,0,0
"15","A1LOUZD99NZCT2","english",29,"male","high","high_operative",2136,"0","1","1",0,"The Northeast district.","The Northeast and Southwest districts.","The South and North districts.","mo-h","ms-h","ms-l",0,1,0,1,1,0,1,0,0,0,1,1,0,0
"16","A1LOUZD99NZCT2","english",29,"male","low","low_la",3598,"0","0","0",1,"Diner C.","Diners A and E.","Diner E.","mo-h","ms-l","mo-l",0,1,1,0,1,0,1,0,0,0,0,0,0,1
"22","A2YVC1U50H2B4R","English",29,"female","low","low_la",23638,"1","0","0",0,"Diners C and F.","Diners A and E.","Diner C.","ms-h","ms-l","mo-h",0,1,0,1,1,0,1,0,0,0,1,0,0,0
"23","A2YVC1U50H2B4R","English",29,"female","high","high_inspector",29257,"0","0","0",1,"Restaurant E.","Restaurants A, B, C, D, and E.","Restaurants C and E.","mo-l","exh","ms-l",1,0,1,0,1,0,1,0,0,0,0,0,0,1
"24","A2YVC1U50H2B4R","English",29,"female","low","low_yoga",6987,"0","1","0",0,"Studios C and B.","Studios F and E.","Studios F, E, D, C and B.","ms-l","ms-h","exh",1,0,0,1,1,0,1,0,0,0,1,0,0,0
"26","A2YVC1U50H2B4R","English",29,"female","high","high_firefighter",19820,"1","0","0",0,"The fifth floor.","The fourth and sixth floors.","The fifth and second floors.","mo-h","ms-l","ms-h",0,1,0,1,1,0,1,0,1,0,0,0,0,0
"27","A2YVC1U50H2B4R","English",29,"female","low","low_pic",8408,"0","0","1",0,"Location F.","Locations A, D, E, and F.","Location A.","mo-l","exh","mo-h",1,1,1,0,0,0,1,0,1,0,0,0,0,0
"29","A2YVC1U50H2B4R","English",29,"female","high","high_terrorism",5587,"1","0","0",0,"Stores E and B.","Stores A and F.","Store F.","ms-h","ms-l","mo-l",0,0,1,1,1,0,1,0,0,0,1,0,0,0
"30","A2YVC1U50H2B4R","English",29,"female","low","low_brother",5432,"0","0","0",1,"Stalls C, D, A, F and B.","Stalls A and B.","Stall B.","exh","ms-l","mo-l",1,0,1,0,1,0,1,0,0,0,0,0,0,1
"31","A2YVC1U50H2B4R","English",29,"female","high","high_fbi",5087,"0","0","1",0,"Place E.","Places B and E.","Places F and A.","mo-l","ms-l","ms-h",0,0,1,1,1,0,1,0,0,0,1,0,0,0
"33","A2YVC1U50H2B4R","English",29,"female","low","low_coffee",4055,"0","0","1",0,"Cafes F and D.","Cafe D.","Cafe E.","ms-l","mo-l","mo-h",0,1,1,0,1,0,1,0,1,0,0,0,0,0
"34","A2YVC1U50H2B4R","English",29,"female","high","high_operative",6676,"0","1","0",0,"The South and North districts.","The Northeast and Southwest districts.","The North district.","ms-l","ms-h","mo-l",0,0,1,1,1,0,1,0,0,0,1,0,0,0
"40","A2QWERWB75X8YU","english",28,"female","high","high_terrorism",24581,"0","1","0",0,"Store F.","Stores E and B.","Stores A and F.","mo-l","ms-h","ms-l",0,0,1,1,1,0,1,0,0,0,1,0,0,0
"41","A2QWERWB75X8YU","english",28,"female","low","low_pic",12479,"1","0","0",0,"Locations A and D.","Locations D and F.","Location F.","ms-h","ms-l","mo-l",0,0,1,1,1,0,1,0,0,0,1,0,0,0
"42","A2QWERWB75X8YU","english",28,"female","high","high_operative",18754,"1","0","0",0,"The Northeast, Southwest, South, Southeast and North districts.","The Northeast district.","The South and North districts.","exh","mo-h","ms-l",1,1,0,0,1,0,1,1,0,0,0,0,0,0
"44","A2QWERWB75X8YU","english",28,"female","low","low_yoga",8425,"0","0","1",0,"Studio B.","Studio A.","Studio F.","mo-l","f","mo-h",0,1,1,0,0,1,1,0,1,0,0,0,0,0
"45","A2QWERWB75X8YU","english",28,"female","high","high_inspector",16908,"0","1","1",0,"Restaurant E.","Restaurant A.","Restaurants A and B.","mo-l","mo-h","ms-h",0,1,1,1,0,0,1,0,1,0,1,0,0,0
"47","A2QWERWB75X8YU","english",28,"female","low","low_brother",8655,"0","1","0",0,"Stalls C, D, A, F and B.","Stalls C and D.","Stalls A and B.","exh","ms-h","ms-l",1,0,0,1,1,0,1,0,0,0,1,0,0,0
"48","A2QWERWB75X8YU","english",28,"female","high","high_firefighter",8221,"0","1","0",0,"The sixth floor.","The fifth and second floors.","The first floor.","mo-l","ms-h","f",0,0,1,1,0,1,1,0,0,0,1,0,0,0
"49","A2QWERWB75X8YU","english",28,"female","low","low_la",6832,"0","1","0",0,"Diners A and E.","Diner C.","Diner E.","ms-l","mo-h","mo-l",0,1,1,0,1,0,1,0,1,0,0,0,0,0
"51","A2QWERWB75X8YU","english",28,"female","high","high_fbi",16800,"1","0","0",0,"Places B and E.","Place E.","Place D.","ms-l","mo-l","f",0,0,1,0,1,1,1,0,0,0,0,1,0,0
"52","A2QWERWB75X8YU","english",28,"female","low","low_coffee",5944,"0","1","0",0,"Cafe D.","Cafes E and B.","Cafe A.","mo-l","ms-h","f",0,0,1,1,0,1,1,0,0,0,1,0,0,0
"58","ACVJ6IUO9QM4R","English",35,"female","low","low_coffee",2635,"1","0","0",0,"Cafe E.","Cafes E and B.","Cafe D.","mo-h","ms-h","mo-l",0,1,1,1,0,0,1,0,1,0,0,0,0,0
"59","ACVJ6IUO9QM4R","English",35,"female","high","high_operative",1679,"0","1","0",0,"The South and North districts.","The North district.","The Northeast, Southwest, South, Southeast and North districts.","ms-l","mo-l","exh",1,0,1,0,1,0,1,0,0,1,0,0,0,0
"60","ACVJ6IUO9QM4R","English",35,"female","low","low_la",3091,"1","0","0",0,"Diners A and E.","Diner E.","Diner C.","ms-l","mo-l","mo-h",0,1,1,0,1,0,1,0,0,0,0,1,0,0
"62","ACVJ6IUO9QM4R","English",35,"female","high","high_firefighter",3914,"0","1","1",0,"The fifth floor.","The fourth and sixth floors.","The fifth, second, fourth, third and sixth floors.","mo-h","ms-l","exh",1,1,0,0,1,0,1,1,0,0,0,1,0,0
"63","ACVJ6IUO9QM4R","English",35,"female","low","low_yoga",1260,"0","1","0",0,"Studio A.","Studios F and E.","Studio B.","f","ms-h","mo-l",0,0,1,1,0,1,1,0,0,0,1,0,0,0
"65","ACVJ6IUO9QM4R","English",35,"female","high","high_inspector",1874,"0","0","1",0,"Restaurants A, B, C, D, and E.","Restaurants A and B.","Restaurants C and E.","exh","ms-h","ms-l",1,0,0,1,1,0,1,0,0,0,0,1,0,0
"66","ACVJ6IUO9QM4R","English",35,"female","low","low_brother",1029,"0","1","0",0,"Stalls C and D.","Stall B.","Stalls C, D, A, F and B.","ms-h","mo-l","exh",1,0,1,1,0,0,1,0,0,1,0,0,0,0
"67","ACVJ6IUO9QM4R","English",35,"female","high","high_terrorism",1157,"1","0","0",0,"Store F.","Store C.","Stores A and F.","mo-l","f","ms-l",0,0,1,0,1,1,1,0,0,1,0,0,0,0
"69","ACVJ6IUO9QM4R","English",35,"female","low","low_pic",2148,"1","0","0",0,"Location A.","Locations D and F.","Location F.","mo-h","ms-l","mo-l",0,1,1,0,1,0,1,0,1,0,0,0,0,0
"70","ACVJ6IUO9QM4R","English",35,"female","high","high_fbi",2432,"0","1","0",0,"Place E.","Place F.","Places F and A.","mo-l","mo-h","ms-h",0,1,1,1,0,0,1,0,1,0,0,0,0,0
"76","A1DIW2K1J89CMO","English",22,"female","high","high_fbi",25597,"0","0","1",0,"Place E.","Places B and E.","Places F and A.","mo-l","ms-l","ms-h",0,0,1,1,1,0,1,0,0,0,1,0,0,0
"77","A1DIW2K1J89CMO","English",22,"female","low","low_brother",50773,"0","0","1",0,"Stall E.","Stalls A and B.","Stall C.","f","ms-l","mo-h",0,1,0,0,1,1,1,0,1,0,0,0,0,0
"78","A1DIW2K1J89CMO","English",22,"female","high","high_terrorism",44535,"1","0","0",0,"Stores E and B.","Store F.","Stores A and F.","ms-h","mo-l","ms-l",0,0,1,1,1,0,1,0,0,0,1,0,0,0
"80","A1DIW2K1J89CMO","English",22,"female","low","low_pic",19286,"1","0","1",0,"Locations A and D.","Location B.","Location A.","ms-h","f","mo-h",0,1,0,1,0,1,1,0,1,0,1,0,0,0
"81","A1DIW2K1J89CMO","English",22,"female","high","high_operative",17381,"1","0","1",0,"The Northeast district.","The South and North districts.","The Northeast and Southwest districts.","mo-h","ms-l","ms-h",0,1,0,1,1,0,1,0,1,0,1,0,0,0
"83","A1DIW2K1J89CMO","English",22,"female","low","low_coffee",10174,"0","1","0",0,"Cafe D.","Cafes E and B.","Cafes F and D.","mo-l","ms-h","ms-l",0,0,1,1,1,0,1,0,0,0,1,0,0,0
"84","A1DIW2K1J89CMO","English",22,"female","high","high_inspector",27894,"0","0","0",1,"Restaurants C and E.","Restaurant E.","Restaurant F.","ms-l","mo-l","f",0,0,1,0,1,1,1,0,0,0,0,0,0,1
"85","A1DIW2K1J89CMO","English",22,"female","low","low_la",18678,"1","0","0",0,"Diners C and F.","Diners A and E.","Diners C, F, A, D, and E.","ms-h","ms-l","exh",1,0,0,1,1,0,1,0,0,0,1,0,0,0
"87","A1DIW2K1J89CMO","English",22,"female","high","high_firefighter",17101,"0","1","0",0,"The sixth floor.","The fifth, second, fourth, third and sixth floors.","The fifth and second floors.","mo-l","exh","ms-h",1,0,1,1,0,0,1,1,0,0,0,0,0,0
"88","A1DIW2K1J89CMO","English",22,"female","low","low_yoga",10327,"1","0","1",0,"Studio F.","Studios C and B.","Studios F and E.","mo-h","ms-l","ms-h",0,1,0,1,1,0,1,0,1,0,1,0,0,0
"94","A11FRLH5KWRLBV","English",34,"male","high","high_fbi",18712,"0","1","0",0,"Place E.","Place F.","Places B and E.","mo-l","mo-h","ms-l",0,1,1,0,1,0,1,0,1,0,0,0,0,0
"95","A11FRLH5KWRLBV","English",34,"male","low","low_pic",1903,"0","0","1",0,"Locations D and F.","Location A.","Location B.","ms-l","mo-h","f",0,1,0,0,1,1,1,0,0,0,0,0,1,0
"97","A11FRLH5KWRLBV","English",34,"male","high","high_terrorism",2376,"0","1","0",0,"Store C.","Stores E and B.","Store E.","f","ms-h","mo-h",0,1,0,1,0,1,1,0,0,0,1,0,0,0
"98","A11FRLH5KWRLBV","English",34,"male","low","low_yoga",1464,"0","0","1",0,"Studios F and E.","Studio F.","Studios F, E, D, C and B.","ms-h","mo-h","exh",1,1,0,1,0,0,1,1,0,0,0,0,0,0
"100","A11FRLH5KWRLBV","English",34,"male","high","high_inspector",2049,"1","0","0",0,"Restaurant A.","Restaurants C and E.","Restaurants A and B.","mo-h","ms-l","ms-h",0,1,0,1,1,0,1,0,1,0,0,0,0,0
"101","A11FRLH5KWRLBV","English",34,"male","low","low_brother",1675,"0","0","1",0,"Stall E.","Stalls C and D.","Stalls A and B.","f","ms-h","ms-l",0,0,0,1,1,1,1,0,0,0,0,1,0,0
"102","A11FRLH5KWRLBV","English",34,"male","high","high_operative",5269,"0","1","0",0,"The South and North districts.","The North district.","The Northeast and Southwest districts.","ms-l","mo-l","ms-h",0,0,1,1,1,0,1,0,0,1,0,0,0,0
"104","A11FRLH5KWRLBV","English",34,"male","low","low_coffee",1915,"0","1","0",0,"Cafes E and B.","Cafe E.","Cafe D.","ms-h","mo-h","mo-l",0,1,1,1,0,0,1,0,1,0,0,0,0,0
"105","A11FRLH5KWRLBV","English",34,"male","high","high_firefighter",2908,"0","0","1",0,"The fourth and sixth floors.","The fifth floor.","The sixth floor.","ms-l","mo-h","mo-l",0,1,1,0,1,0,1,0,0,1,0,0,0,0
"106","A11FRLH5KWRLBV","English",34,"male","low","low_la",1741,"1","0","0",0,"Diner C.","Diner B.","Diners C and F.","mo-h","f","ms-h",0,1,0,1,0,1,1,0,1,0,0,0,0,0
"112","A2YGAEODJ5SSF6","English ",41,"male","low","low_brother",33714,"0","1","0",0,"Stalls C, D, A, F and B.","Stalls C and D.","Stalls A and B.","exh","ms-h","ms-l",1,0,0,1,1,0,1,0,0,0,1,0,0,0
"113","A2YGAEODJ5SSF6","English ",41,"male","high","high_fbi",22375,"0","1","0",0,"Place D.","Place F.","Place E.","f","mo-h","mo-l",0,1,1,0,0,1,1,0,1,0,0,0,0,0
"114","A2YGAEODJ5SSF6","English ",41,"male","low","low_la",13581,"1","1","0",0,"Diner C.","Diners C and F.","Diner B.","mo-h","ms-h","f",0,1,0,1,0,1,1,0,1,0,1,0,0,0
"116","A2YGAEODJ5SSF6","English ",41,"male","high","high_inspector",26442,"1","1","0",0,"Restaurants C and E.","Restaurants A and B.","Restaurant F.","ms-l","ms-h","f",0,0,0,1,1,1,1,0,0,0,1,1,0,0
"117","A2YGAEODJ5SSF6","English ",41,"male","low","low_yoga",33390,"0","1","0",0,"Studio A.","Studios F and E.","Studio B.","f","ms-h","mo-l",0,0,1,1,0,1,1,0,0,0,1,0,0,0
"119","A2YGAEODJ5SSF6","English ",41,"male","high","high_operative",35657,"0","1","0",0,"The North district.","The Northeast and Southwest districts.","The Northeast district.","mo-l","ms-h","mo-h",0,1,1,1,0,0,1,0,0,0,1,0,0,0
"120","A2YGAEODJ5SSF6","English ",41,"male","low","low_coffee",41424,"0","1","0",0,"Cafe D.","Cafe E.","Cafes F and D.","mo-l","mo-h","ms-l",0,1,1,0,1,0,1,0,1,0,0,0,0,0
"121","A2YGAEODJ5SSF6","English ",41,"male","high","high_firefighter",27893,"1","1","1",0,"The sixth floor.","The fifth floor.","The fifth, second, fourth, third and sixth floors.","mo-l","mo-h","exh",1,1,1,0,0,0,1,1,1,1,0,0,0,0
"123","A2YGAEODJ5SSF6","English ",41,"male","low","low_pic",19010,"0","0","0",1,"Location F.","Locations D and F.","Location B.","mo-l","ms-l","f",0,0,1,0,1,1,1,0,0,0,0,0,0,1
"124","A2YGAEODJ5SSF6","English ",41,"male","high","high_terrorism",14694,"1","0","0",0,"Store E.","Stores E and B.","Stores A and F.","mo-h","ms-h","ms-l",0,1,0,1,1,0,1,0,1,0,0,0,0,0
"130","A2DVJ6OMVVYTC7","English",29,"male","low","low_pic",39646,"0","0","1",0,"Locations A, D, E, and F.","Location F.","Locations A and D.","exh","mo-l","ms-h",1,0,1,1,0,0,1,0,0,0,1,0,0,0
"131","A2DVJ6OMVVYTC7","English",29,"male","high","high_fbi",21885,"0","0","1",0,"Place F.","Place E.","Places F, A, B, C and E.","mo-h","mo-l","exh",1,1,1,0,0,0,1,1,0,0,0,0,0,0
"132","A2DVJ6OMVVYTC7","English",29,"male","low","low_la",28142,"0","1","0",0,"Diner E.","Diner C.","Diners A and E.","mo-l","mo-h","ms-l",0,1,1,0,1,0,1,0,1,0,0,0,0,0
"134","A2DVJ6OMVVYTC7","English",29,"male","high","high_inspector",36165,"0","0","1",0,"Restaurant F.","Restaurants C and E.","Restaurants A and B.","f","ms-l","ms-h",0,0,0,1,1,1,1,0,0,0,1,0,0,0
"135","A2DVJ6OMVVYTC7","English",29,"male","low","low_brother",31765,"1","0","0",0,"Stall C.","Stalls A and B.","Stall B.","mo-h","ms-l","mo-l",0,1,1,0,1,0,1,0,1,0,0,0,0,0
"137","A2DVJ6OMVVYTC7","English",29,"male","high","high_terrorism",15335,"0","1","0",0,"Store F.","Stores E and B.","Stores A and F.","mo-l","ms-h","ms-l",0,0,1,1,1,0,1,0,0,0,1,0,0,0
"138","A2DVJ6OMVVYTC7","English",29,"male","low","low_yoga",9262,"1","0","0",0,"Studios F and E.","Studios F, E, D, C and B.","Studio F.","ms-h","exh","mo-h",1,1,0,1,0,0,1,0,0,0,1,0,0,0
"139","A2DVJ6OMVVYTC7","English",29,"male","high","high_operative",12110,"0","1","0",0,"The Northeast district.","The Northeast and Southwest districts.","The North district.","mo-h","ms-h","mo-l",0,1,1,1,0,0,1,0,0,0,1,0,0,0
"141","A2DVJ6OMVVYTC7","English",29,"male","low","low_coffee",6054,"1","0","0",0,"Cafes E and B.","Cafe D.","Cafes E, B, F, C and D.","ms-h","mo-l","exh",1,0,1,1,0,0,1,0,0,0,1,0,0,0
"142","A2DVJ6OMVVYTC7","English",29,"male","high","high_firefighter",10676,"1","0","0",0,"The fifth, second, fourth, third and sixth floors.","The fourth and sixth floors.","The first floor.","exh","ms-l","f",1,0,0,0,1,1,1,1,0,0,0,0,0,0
"148","AA8MK8AWWWL62","English",32,"female","high","high_operative",65343,"1","1","1",0,"The North district.","The Northeast and Southwest districts.","The Northeast district.","mo-l","ms-h","mo-h",0,1,1,1,0,0,1,0,1,1,1,0,0,0
"149","AA8MK8AWWWL62","English",32,"female","low","low_pic",44644,"0","0","1",0,"Location B.","Location F.","Location A.","f","mo-l","mo-h",0,1,1,0,0,1,1,0,1,0,0,0,0,0
"150","AA8MK8AWWWL62","English",32,"female","high","high_firefighter",29903,"1","1","1",0,"The fifth and second floors.","The fifth floor.","The sixth floor.","ms-h","mo-h","mo-l",0,1,1,1,0,0,1,0,1,1,1,0,0,0
"152","AA8MK8AWWWL62","English",32,"female","low","low_coffee",18265,"1","1","1",0,"Cafes E and B.","Cafes E, B, F, C and D.","Cafes F and D.","ms-h","exh","ms-l",1,0,0,1,1,0,1,1,0,0,1,1,0,0
"153","AA8MK8AWWWL62","English",32,"female","high","high_inspector",19114,"1","1","1",0,"Restaurants A and B.","Restaurant A.","Restaurants C and E.","ms-h","mo-h","ms-l",0,1,0,1,1,0,1,0,1,0,1,1,0,0
"155","AA8MK8AWWWL62","English",32,"female","low","low_la",33853,"0","0","1",0,"Diner E.","Diners A and E.","Diners C, F, A, D, and E.","mo-l","ms-l","exh",1,0,1,0,1,0,1,1,0,0,0,0,0,0
"156","AA8MK8AWWWL62","English",32,"female","high","high_terrorism",25953,"1","0","1",0,"Store E.","Store F.","Stores E, B, A, D, and F.","mo-h","mo-l","exh",1,1,1,0,0,0,1,1,1,0,0,0,0,0
"157","AA8MK8AWWWL62","English",32,"female","low","low_yoga",21506,"0","1","1",0,"Studios C and B.","Studios F and E.","Studio F.","ms-l","ms-h","mo-h",0,1,0,1,1,0,1,0,1,0,1,0,0,0
"159","AA8MK8AWWWL62","English",32,"female","high","high_fbi",36435,"0","1","0",1,"Places F and A.","Places B and E.","Place D.","ms-h","ms-l","f",0,0,0,1,1,1,1,0,0,0,0,1,0,1
"160","AA8MK8AWWWL62","English",32,"female","low","low_brother",18147,"0","0","1",0,"Stalls A and B.","Stall B.","Stalls C and D.","ms-l","mo-l","ms-h",0,0,1,1,1,0,1,0,0,0,1,0,0,0
"166","A10LGIY5HFYMZM","ENGLISH",58,"male","high","high_operative",30502,"1","0","0",0,"The North district.","The Northeast and Southwest districts.","The South and North districts.","mo-l","ms-h","ms-l",0,0,1,1,1,0,1,0,0,1,0,0,0,0
"167","A10LGIY5HFYMZM","ENGLISH",58,"male","low","low_yoga",84069,"1","0","0",0,"Studio F.","Studio B.","Studios C and B.","mo-h","mo-l","ms-l",0,1,1,0,1,0,1,0,1,0,0,0,0,0
"168","A10LGIY5HFYMZM","ENGLISH",58,"male","high","high_terrorism",25253,"1","0","0",0,"Store E.","Stores E and B.","Stores A and F.","mo-h","ms-h","ms-l",0,1,0,1,1,0,1,0,1,0,0,0,0,0
"170","A10LGIY5HFYMZM","ENGLISH",58,"male","low","low_coffee",56949,"0","1","0",0,"Cafe D.","Cafe E.","Cafes F and D.","mo-l","mo-h","ms-l",0,1,1,0,1,0,1,0,1,0,0,0,0,0
"171","A10LGIY5HFYMZM","ENGLISH",58,"male","high","high_firefighter",24371,"1","0","0",0,"The fifth floor.","The fourth and sixth floors.","The sixth floor.","mo-h","ms-l","mo-l",0,1,1,0,1,0,1,0,1,0,0,0,0,0
"173","A10LGIY5HFYMZM","ENGLISH",58,"male","low","low_pic",52118,"0","1","0",0,"Locations D and F.","Location A.","Locations A, D, E, and F.","ms-l","mo-h","exh",1,1,0,0,1,0,1,0,1,0,0,0,0,0
"174","A10LGIY5HFYMZM","ENGLISH",58,"male","high","high_inspector",38709,"0","0","1",0,"Restaurants C and E.","Restaurant E.","Restaurant A.","ms-l","mo-l","mo-h",0,1,1,0,1,0,1,0,1,0,0,0,0,0
"175","A10LGIY5HFYMZM","ENGLISH",58,"male","low","low_la",24685,"0","0","1",0,"Diners A and E.","Diner E.","Diners C, F, A, D, and E.","ms-l","mo-l","exh",1,0,1,0,1,0,1,1,0,0,0,0,0,0
"177","A10LGIY5HFYMZM","ENGLISH",58,"male","high","high_fbi",12400,"1","0","0",0,"Places F, A, B, C and E.","Places B and E.","Place E.","exh","ms-l","mo-l",1,0,1,0,1,0,1,1,0,0,0,0,0,0
"178","A10LGIY5HFYMZM","ENGLISH",58,"male","low","low_brother",11859,"0","1","0",0,"Stalls A and B.","Stall C.","Stall B.","ms-l","mo-h","mo-l",0,1,1,0,1,0,1,0,1,0,0,0,0,0
"184","A2LCOTUKCDULAA","english",52,"female","high","high_firefighter",103548,"0","0","1",0,"The first floor.","The fourth and sixth floors.","The fifth and second floors.","f","ms-l","ms-h",0,0,0,1,1,1,1,0,0,0,1,0,0,0
"185","A2LCOTUKCDULAA","english",52,"female","low","low_pic",61882,"1","0","0",0,"Locations A and D.","Location B.","Location F.","ms-h","f","mo-l",0,0,1,1,0,1,1,0,0,0,1,0,0,0
"186","A2LCOTUKCDULAA","english",52,"female","high","high_fbi",40613,"0","0","0",1,"Place D.","Place E.","Places B and E.","f","mo-l","ms-l",0,0,1,0,1,1,1,0,0,0,0,0,0,1
"188","A2LCOTUKCDULAA","english",52,"female","low","low_brother",29505,"1","0","0",0,"Stall B.","Stalls A and B.","Stalls C, D, A, F and B.","mo-l","ms-l","exh",1,0,1,0,1,0,1,0,0,1,0,0,0,0
"189","A2LCOTUKCDULAA","english",52,"female","high","high_inspector",48502,"1","0","0",0,"Restaurants C and E.","Restaurant E.","Restaurant A.","ms-l","mo-l","mo-h",0,1,1,0,1,0,1,0,0,0,0,1,0,0
"191","A2LCOTUKCDULAA","english",52,"female","low","low_yoga",15883,"1","0","0",0,"Studio A.","Studio B.","Studios F and E.","f","mo-l","ms-h",0,0,1,1,0,1,1,0,0,0,0,0,1,0
"192","A2LCOTUKCDULAA","english",52,"female","high","high_terrorism",18084,"1","0","0",0,"Store F.","Stores E and B.","Store E.","mo-l","ms-h","mo-h",0,1,1,1,0,0,1,0,0,1,0,0,0,0
"193","A2LCOTUKCDULAA","english",52,"female","low","low_coffee",25789,"1","0","0",0,"Cafe E.","Cafes E and B.","Cafes F and D.","mo-h","ms-h","ms-l",0,1,0,1,1,0,1,0,1,0,0,0,0,0
"195","A2LCOTUKCDULAA","english",52,"female","high","high_operative",6837,"1","0","0",0,"The West district.","The Northeast district.","The Northeast, Southwest, South, Southeast and North districts.","f","mo-h","exh",1,1,0,0,0,1,1,0,0,0,0,0,1,0
"196","A2LCOTUKCDULAA","english",52,"female","low","low_la",17265,"0","0","0",1,"Diner E.","Diners C, F, A, D, and E.","Diners A and E.","mo-l","exh","ms-l",1,0,1,0,1,0,1,0,0,0,0,0,0,1
"202","A35NM2285DUAFH","English",28,"female","high","high_fbi",35300,"0","0","1",0,"Place E.","Places B and E.","Places F, A, B, C and E.","mo-l","ms-l","exh",1,0,1,0,1,0,1,1,0,0,0,0,0,0
"203","A35NM2285DUAFH","English",28,"female","low","low_brother",20453,"0","0","1",0,"Stalls C and D.","Stalls A and B.","Stall C.","ms-h","ms-l","mo-h",0,1,0,1,1,0,1,0,1,0,0,0,0,0
"205","A35NM2285DUAFH","English",28,"female","high","high_operative",28635,"0","0","1",0,"The Northeast, Southwest, South, Southeast and North districts.","The North district.","The Northeast and Southwest districts.","exh","mo-l","ms-h",1,0,1,1,0,0,1,0,0,0,1,0,0,0
"206","A35NM2285DUAFH","English",28,"female","low","low_la",20351,"0","0","1",0,"Diner B.","Diners A and E.","Diner C.","f","ms-l","mo-h",0,1,0,0,1,1,1,0,1,0,0,0,0,0
"208","A35NM2285DUAFH","English",28,"female","high","high_inspector",29401,"1","1","1",0,"Restaurant A.","Restaurants C and E.","Restaurants A and B.","mo-h","ms-l","ms-h",0,1,0,1,1,0,1,0,1,0,1,1,0,0
"209","A35NM2285DUAFH","English",28,"female","low","low_pic",29613,"1","1","1",0,"Locations D and F.","Location F.","Locations A and D.","ms-l","mo-l","ms-h",0,0,1,1,1,0,1,0,0,1,1,1,0,0
"210","A35NM2285DUAFH","English",28,"female","high","high_terrorism",16388,"1","0","0",0,"Stores E and B.","Stores E, B, A, D, and F.","Store C.","ms-h","exh","f",1,0,0,1,0,1,1,0,0,0,1,0,0,0
"212","A35NM2285DUAFH","English",28,"female","low","low_coffee",28605,"0","1","1",0,"Cafe D.","Cafe E.","Cafes E and B.","mo-l","mo-h","ms-h",0,1,1,1,0,0,1,0,1,0,1,0,0,0
"213","A35NM2285DUAFH","English",28,"female","high","high_firefighter",17052,"1","1","1",0,"The fourth and sixth floors.","The fifth and second floors.","The fifth floor.","ms-l","ms-h","mo-h",0,1,0,1,1,0,1,0,1,0,1,1,0,0
"214","A35NM2285DUAFH","English",28,"female","low","low_yoga",22167,"0","0","1",0,"Studios F, E, D, C and B.","Studio A.","Studio F.","exh","f","mo-h",1,1,0,0,0,1,1,0,1,0,0,0,0,0
"220","A2L22HZ50T83UK","english",28,"female","high","high_firefighter",25973,"1","0","0",0,"The fifth, second, fourth, third and sixth floors.","The sixth floor.","The fourth and sixth floors.","exh","mo-l","ms-l",1,0,1,0,1,0,1,1,0,0,0,0,0,0
"221","A2L22HZ50T83UK","english",28,"female","low","low_pic",24857,"0","0","0",1,"Location B.","Locations D and F.","Location F.","f","ms-l","mo-l",0,0,1,0,1,1,1,0,0,0,0,0,0,1
"222","A2L22HZ50T83UK","english",28,"female","high","high_inspector",25269,"0","1","0",0,"Restaurant E.","Restaurants A and B.","Restaurants C and E.","mo-l","ms-h","ms-l",0,0,1,1,1,0,1,0,0,0,1,0,0,0
"224","A2L22HZ50T83UK","english",28,"female","low","low_brother",9820,"0","1","0",0,"Stalls A and B.","Stall C.","Stall B.","ms-l","mo-h","mo-l",0,1,1,0,1,0,1,0,1,0,0,0,0,0
"225","A2L22HZ50T83UK","english",28,"female","high","high_operative",11847,"1","0","0",0,"The Northeast district.","The North district.","The South and North districts.","mo-h","mo-l","ms-l",0,1,1,0,1,0,1,0,1,0,0,0,0,0
"227","A2L22HZ50T83UK","english",28,"female","low","low_la",13042,"0","0","1",0,"Diner E.","Diner B.","Diners C, F, A, D, and E.","mo-l","f","exh",1,0,1,0,0,1,1,1,0,0,0,0,0,0
"228","A2L22HZ50T83UK","english",28,"female","high","high_fbi",14481,"0","1","0",0,"Place D.","Places B and E.","Place E.","f","ms-l","mo-l",0,0,1,0,1,1,1,0,0,0,0,1,0,0
"229","A2L22HZ50T83UK","english",28,"female","low","low_yoga",6287,"1","0","0",0,"Studio F.","Studios F, E, D, C and B.","Studios F and E.","mo-h","exh","ms-h",1,1,0,1,0,0,1,0,1,0,0,0,0,0
"231","A2L22HZ50T83UK","english",28,"female","high","high_terrorism",15555,"1","0","0",0,"Stores A and F.","Store E.","Stores E and B.","ms-l","mo-h","ms-h",0,1,0,1,1,0,1,0,0,0,0,1,0,0
"232","A2L22HZ50T83UK","english",28,"female","low","low_coffee",14371,"1","1","1",0,"Cafes E and B.","Cafe E.","Cafes E, B, F, C and D.","ms-h","mo-h","exh",1,1,0,1,0,0,1,1,1,0,1,0,0,0
"238","A1U8HCXVACOGJ8","english",53,"female","high","high_terrorism",61048,"0","1","1",0,"Store F.","Stores E and B.","Store E.","mo-l","ms-h","mo-h",0,1,1,1,0,0,1,0,1,0,1,0,0,0
"239","A1U8HCXVACOGJ8","english",53,"female","low","low_coffee",36231,"1","1","1",0,"Cafes F and D.","Cafe E.","Cafes E, B, F, C and D.","ms-l","mo-h","exh",1,1,0,0,1,0,1,1,1,0,0,1,0,0
"241","A1U8HCXVACOGJ8","english",53,"female","high","high_operative",41880,"1","0","1",0,"The Northeast and Southwest districts.","The South and North districts.","The Northeast district.","ms-h","ms-l","mo-h",0,1,0,1,1,0,1,0,1,0,1,0,0,0
"242","A1U8HCXVACOGJ8","english",53,"female","low","low_yoga",42597,"1","1","1",0,"Studios C and B.","Studio F.","Studios F, E, D, C and B.","ms-l","mo-h","exh",1,1,0,0,1,0,1,1,1,0,0,1,0,0
"244","A1U8HCXVACOGJ8","english",53,"female","high","high_firefighter",25984,"1","1","1",0,"The fourth and sixth floors.","The sixth floor.","The fifth and second floors.","ms-l","mo-l","ms-h",0,0,1,1,1,0,1,0,0,1,1,1,0,0
"245","A1U8HCXVACOGJ8","english",53,"female","low","low_brother",22906,"1","1","1",0,"Stall B.","Stalls C, D, A, F and B.","Stalls C and D.","mo-l","exh","ms-h",1,0,1,1,0,0,1,1,0,1,1,0,0,0
"246","A1U8HCXVACOGJ8","english",53,"female","high","high_inspector",27951,"1","1","1",0,"Restaurant A.","Restaurants A and B.","Restaurant E.","mo-h","ms-h","mo-l",0,1,1,1,0,0,1,0,1,1,1,0,0,0
"248","A1U8HCXVACOGJ8","english",53,"female","low","low_pic",24322,"1","1","1",0,"Locations A and D.","Location A.","Location F.","ms-h","mo-h","mo-l",0,1,1,1,0,0,1,0,1,1,1,0,0,0
"249","A1U8HCXVACOGJ8","english",53,"female","high","high_fbi",34919,"1","1","1",0,"Place E.","Places F and A.","Places F, A, B, C and E.","mo-l","ms-h","exh",1,0,1,1,0,0,1,1,0,1,1,0,0,0
"250","A1U8HCXVACOGJ8","english",53,"female","low","low_la",24789,"1","1","1",0,"Diners A and E.","Diners C and F.","Diner E.","ms-l","ms-h","mo-l",0,0,1,1,1,0,1,0,0,1,1,1,0,0
"256","AWPB724OHY99T","English",50,"female","low","low_brother",45703,"0","0","1",0,"Stall C.","Stall B.","Stalls C, D, A, F and B.","mo-h","mo-l","exh",1,1,1,0,0,0,1,1,0,0,0,0,0,0
"257","AWPB724OHY99T","English",50,"female","high","high_operative",22229,"0","0","0",1,"The Northeast and Southwest districts.","The South and North districts.","The North district.","ms-h","ms-l","mo-l",0,0,1,1,1,0,1,0,0,0,0,0,0,1
"258","AWPB724OHY99T","English",50,"female","low","low_pic",13701,"0","0","0",1,"Location F.","Location A.","Locations A and D.","mo-l","mo-h","ms-h",0,1,1,1,0,0,1,0,0,0,0,0,0,1
"260","AWPB724OHY99T","English",50,"female","high","high_inspector",7812,"1","0","0",0,"Restaurants A and B.","Restaurant E.","Restaurants C and E.","ms-h","mo-l","ms-l",0,0,1,1,1,0,1,0,0,0,1,0,0,0
"261","AWPB724OHY99T","English",50,"female","low","low_coffee",6767,"0","1","0",0,"Cafes E, B, F, C and D.","Cafe E.","Cafes F and D.","exh","mo-h","ms-l",1,1,0,0,1,0,1,0,1,0,0,0,0,0
"263","AWPB724OHY99T","English",50,"female","high","high_terrorism",16419,"0","1","0",0,"Stores A and F.","Stores E and B.","Store F.","ms-l","ms-h","mo-l",0,0,1,1,1,0,1,0,0,0,1,0,0,0
"264","AWPB724OHY99T","English",50,"female","low","low_yoga",5361,"0","1","0",0,"Studios C and B.","Studio F.","Studio B.","ms-l","mo-h","mo-l",0,1,1,0,1,0,1,0,1,0,0,0,0,0
"265","AWPB724OHY99T","English",50,"female","high","high_firefighter",5198,"1","0","0",0,"The fifth floor.","The fourth and sixth floors.","The fifth and second floors.","mo-h","ms-l","ms-h",0,1,0,1,1,0,1,0,1,0,0,0,0,0
"267","AWPB724OHY99T","English",50,"female","low","low_la",12150,"1","0","0",0,"Diner C.","Diners A and E.","Diner E.","mo-h","ms-l","mo-l",0,1,1,0,1,0,1,0,1,0,0,0,0,0
"268","AWPB724OHY99T","English",50,"female","high","high_fbi",9448,"0","0","0",1,"Place F.","Places B and E.","Places F and A.","mo-h","ms-l","ms-h",0,1,0,1,1,0,1,0,0,0,0,0,0,1
"274","A25FH7PXC446RG","english",51,"female","high","high_inspector",56952,"0","0","0",1,"Restaurant A.","Restaurants C and E.","Restaurant E.","mo-h","ms-l","mo-l",0,1,1,0,1,0,1,0,0,0,0,0,0,1
"275","A25FH7PXC446RG","english",51,"female","low","low_coffee",91127,"0","0","1",0,"Cafes E, B, F, C and D.","Cafes E and B.","Cafe D.","exh","ms-h","mo-l",1,0,1,1,0,0,1,0,0,1,0,0,0,0
"277","A25FH7PXC446RG","english",51,"female","high","high_firefighter",44124,"0","0","1",0,"The fourth and sixth floors.","The sixth floor.","The fifth and second floors.","ms-l","mo-l","ms-h",0,0,1,1,1,0,1,0,0,0,1,0,0,0
"278","A25FH7PXC446RG","english",51,"female","low","low_yoga",18649,"1","0","0",0,"Studios F and E.","Studio B.","Studios C and B.","ms-h","mo-l","ms-l",0,0,1,1,1,0,1,0,0,0,1,0,0,0
"280","A25FH7PXC446RG","english",51,"female","high","high_fbi",35849,"0","0","0",1,"Places F, A, B, C and E.","Place E.","Places B and E.","exh","mo-l","ms-l",1,0,1,0,1,0,1,0,0,0,0,0,0,1
"281","A25FH7PXC446RG","english",51,"female","low","low_la",13040,"0","1","0",0,"Diners A and E.","Diner C.","Diner B.","ms-l","mo-h","f",0,1,0,0,1,1,1,0,1,0,0,0,0,0
"282","A25FH7PXC446RG","english",51,"female","high","high_terrorism",26530,"0","0","1",1,"Stores E, B, A, D, and F.","Store C.","Store F.","exh","f","mo-l",1,0,1,0,0,1,1,0,0,1,0,0,0,1
"284","A25FH7PXC446RG","english",51,"female","low","low_pic",22491,"0","0","0",1,"Locations A, D, E, and F.","Location F.","Locations D and F.","exh","mo-l","ms-l",1,0,1,0,1,0,1,0,0,0,0,0,0,1
"285","A25FH7PXC446RG","english",51,"female","high","high_operative",33778,"0","0","1",0,"The North district.","The Northeast, Southwest, South, Southeast and North districts.","The Northeast and Southwest districts.","mo-l","exh","ms-h",1,0,1,1,0,0,1,0,0,0,1,0,0,0
"286","A25FH7PXC446RG","english",51,"female","low","low_brother",15244,"1","0","0",0,"Stalls C and D.","Stall E.","Stalls C, D, A, F and B.","ms-h","f","exh",1,0,0,1,0,1,1,0,0,0,1,0,0,0
"292","A26M997VYVK0E6","english",31,"male","high","high_terrorism",31548,"0","1","0",0,"Store F.","Store E.","Stores E and B.","mo-l","mo-h","ms-h",0,1,1,1,0,0,1,0,1,0,0,0,0,0
"293","A26M997VYVK0E6","english",31,"male","low","low_yoga",15992,"0","1","0",0,"Studio A.","Studios F, E, D, C and B.","Studios C and B.","f","exh","ms-l",1,0,0,0,1,1,1,1,0,0,0,0,0,0
"295","A26M997VYVK0E6","english",31,"male","high","high_inspector",44782,"0","0","1",0,"Restaurants C and E.","Restaurant F.","Restaurants A and B.","ms-l","f","ms-h",0,0,0,1,1,1,1,0,0,0,1,0,0,0
"296","A26M997VYVK0E6","english",31,"male","low","low_la",5438,"1","0","0",0,"Diner E.","Diners A and E.","Diner C.","mo-l","ms-l","mo-h",0,1,1,0,1,0,1,0,0,1,0,0,0,0
"298","A26M997VYVK0E6","english",31,"male","high","high_fbi",28088,"0","1","0",0,"Place E.","Places F and A.","Places B and E.","mo-l","ms-h","ms-l",0,0,1,1,1,0,1,0,0,0,1,0,0,0
"299","A26M997VYVK0E6","english",31,"male","low","low_brother",41150,"0","1","0",0,"Stall C.","Stalls C and D.","Stall B.","mo-h","ms-h","mo-l",0,1,1,1,0,0,1,0,0,0,1,0,0,0
"300","A26M997VYVK0E6","english",31,"male","high","high_firefighter",73590,"0","1","0",0,"The fifth, second, fourth, third and sixth floors.","The fifth and second floors.","The fifth floor.","exh","ms-h","mo-h",1,1,0,1,0,0,1,0,0,0,1,0,0,0
"302","A26M997VYVK0E6","english",31,"male","low","low_coffee",6004,"0","1","0",0,"Cafes E and B.","Cafe E.","Cafes F and D.","ms-h","mo-h","ms-l",0,1,0,1,1,0,1,0,1,0,0,0,0,0
"303","A26M997VYVK0E6","english",31,"male","high","high_operative",37584,"1","1","1",0,"The South and North districts.","The Northeast, Southwest, South, Southeast and North districts.","The Northeast and Southwest districts.","ms-l","exh","ms-h",1,0,0,1,1,0,1,1,0,0,1,1,0,0
"304","A26M997VYVK0E6","english",31,"male","low","low_pic",27040,"1","1","0",0,"Locations A, D, E, and F.","Location F.","Locations A and D.","exh","mo-l","ms-h",1,0,1,1,0,0,1,1,0,1,0,0,0,0
"310","A1N4AZ1QXPOPXH","English",32,"male","high","high_firefighter",17462,"0","0","0",1,"The fourth and sixth floors.","The fifth floor.","The fifth and second floors.","ms-l","mo-h","ms-h",0,1,0,1,1,0,1,0,0,0,0,0,0,1
"311","A1N4AZ1QXPOPXH","English",32,"male","low","low_coffee",16711,"1","1","1",0,"Cafes E and B.","Cafe E.","Cafe D.","ms-h","mo-h","mo-l",0,1,1,1,0,0,1,0,1,1,1,0,0,0
"313","A1N4AZ1QXPOPXH","English",32,"male","high","high_fbi",18054,"0","0","1",0,"Place E.","Places F, A, B, C and E.","Places F and A.","mo-l","exh","ms-h",1,0,1,1,0,0,1,0,0,0,1,0,0,0
"314","A1N4AZ1QXPOPXH","English",32,"male","low","low_yoga",11022,"0","1","0",0,"Studio A.","Studio F.","Studio B.","f","mo-h","mo-l",0,1,1,0,0,1,1,0,1,0,0,0,0,0
"316","A1N4AZ1QXPOPXH","English",32,"male","high","high_operative",11976,"0","1","0",0,"The South and North districts.","The Northeast and Southwest districts.","The Northeast, Southwest, South, Southeast and North districts.","ms-l","ms-h","exh",1,0,0,1,1,0,1,0,0,0,1,0,0,0
"317","A1N4AZ1QXPOPXH","English",32,"male","low","low_brother",10727,"0","0","0",1,"Stall E.","Stalls A and B.","Stall B.","f","ms-l","mo-l",0,0,1,0,1,1,1,0,0,0,0,0,0,1
"318","A1N4AZ1QXPOPXH","English",32,"male","high","high_terrorism",17793,"1","0","0",0,"Stores E, B, A, D, and F.","Store E.","Store C.","exh","mo-h","f",1,1,0,0,0,1,1,1,0,0,0,0,0,0
"320","A1N4AZ1QXPOPXH","English",32,"male","low","low_la",8572,"0","0","0",1,"Diner B.","Diners A and E.","Diner E.","f","ms-l","mo-l",0,0,1,0,1,1,1,0,0,0,0,0,0,1
"321","A1N4AZ1QXPOPXH","English",32,"male","high","high_inspector",18485,"0","0","1",0,"Restaurants C and E.","Restaurants A and B.","Restaurants A, B, C, D, and E.","ms-l","ms-h","exh",1,0,0,1,1,0,1,1,0,0,0,0,0,0
"322","A1N4AZ1QXPOPXH","English",32,"male","low","low_pic",9057,"0","0","0",1,"Locations A and D.","Locations A, D, E, and F.","Location F.","ms-h","exh","mo-l",1,0,1,1,0,0,1,0,0,0,0,0,0,1
"328","A1UA911OAE2KFJ","english",30,"female","high","high_firefighter",57373,"1","0","0",0,"The fifth floor.","The fourth and sixth floors.","The fifth and second floors.","mo-h","ms-l","ms-h",0,1,0,1,1,0,1,0,1,0,0,0,0,0
"329","A1UA911OAE2KFJ","english",30,"female","low","low_coffee",6979,"0","0","1",0,"Cafes F and D.","Cafes E, B, F, C and D.","Cafe D.","ms-l","exh","mo-l",1,0,1,0,1,0,1,0,0,1,0,0,0,0
"330","A1UA911OAE2KFJ","english",30,"female","high","high_inspector",10178,"1","1","0",0,"Restaurant F.","Restaurant A.","Restaurants C and E.","f","mo-h","ms-l",0,1,0,0,1,1,1,0,1,0,0,0,1,0
"332","A1UA911OAE2KFJ","english",30,"female","low","low_brother",4082,"1","0","0",0,"Stall C.","Stall B.","Stalls A and B.","mo-h","mo-l","ms-l",0,1,1,0,1,0,1,0,1,0,0,0,0,0
"333","A1UA911OAE2KFJ","english",30,"female","high","high_operative",2839,"0","1","0",0,"The South and North districts.","The Northeast, Southwest, South, Southeast and North districts.","The Northeast district.","ms-l","exh","mo-h",1,1,0,0,1,0,1,1,0,0,0,0,0,0
"335","A1UA911OAE2KFJ","english",30,"female","low","low_la",12584,"1","0","0",0,"Diner E.","Diners C, F, A, D, and E.","Diners C and F.","mo-l","exh","ms-h",1,0,1,1,0,0,1,0,0,1,0,0,0,0
"336","A1UA911OAE2KFJ","english",30,"female","high","high_fbi",4195,"0","1","0",0,"Places B and E.","Place F.","Places F, A, B, C and E.","ms-l","mo-h","exh",1,1,0,0,1,0,1,0,1,0,0,0,0,0
"337","A1UA911OAE2KFJ","english",30,"female","low","low_yoga",7827,"1","1","0",0,"Studio F.","Studio A.","Studios C and B.","mo-h","f","ms-l",0,1,0,0,1,1,1,0,1,0,0,0,1,0
"339","A1UA911OAE2KFJ","english",30,"female","high","high_terrorism",2082,"0","1","0",0,"Store F.","Stores E and B.","Stores A and F.","mo-l","ms-h","ms-l",0,0,1,1,1,0,1,0,0,0,1,0,0,0
"340","A1UA911OAE2KFJ","english",30,"female","low","low_pic",1148,"0","0","1",0,"Location F.","Locations D and F.","Location A.","mo-l","ms-l","mo-h",0,1,1,0,1,0,1,0,1,0,0,0,0,0
"346","ADZHJZ078THWQ","English",23,"male","high","high_fbi",7605,"1","0","1",0,"Place F.","Place E.","Places F and A.","mo-h","mo-l","ms-h",0,1,1,1,0,0,1,0,1,0,1,0,0,0
"347","ADZHJZ078THWQ","English",23,"male","low","low_brother",8971,"1","0","1",0,"Stall C.","Stall B.","Stalls C and D.","mo-h","mo-l","ms-h",0,1,1,1,0,0,1,0,1,0,1,0,0,0
"349","ADZHJZ078THWQ","English",23,"male","high","high_operative",11437,"1","0","0",0,"The Northeast, Southwest, South, Southeast and North districts.","The North district.","The West district.","exh","mo-l","f",1,0,1,0,0,1,1,1,0,0,0,0,0,0
"350","ADZHJZ078THWQ","English",23,"male","low","low_yoga",9403,"0","0","1",0,"Studios C and B.","Studios F, E, D, C and B.","Studios F and E.","ms-l","exh","ms-h",1,0,0,1,1,0,1,0,0,0,1,0,0,0
"352","ADZHJZ078THWQ","English",23,"male","high","high_inspector",11958,"1","1","1",0,"Restaurants A and B.","Restaurant A.","Restaurants C and E.","ms-h","mo-h","ms-l",0,1,0,1,1,0,1,0,1,0,1,1,0,0
"353","ADZHJZ078THWQ","English",23,"male","low","low_coffee",6727,"1","0","0",0,"Cafe E.","Cafe A.","Cafes E, B, F, C and D.","mo-h","f","exh",1,1,0,0,0,1,1,0,1,0,0,0,0,0
"354","ADZHJZ078THWQ","English",23,"male","high","high_firefighter",24904,"1","0","1",0,"The fifth floor.","The first floor.","The sixth floor.","mo-h","f","mo-l",0,1,1,0,0,1,1,0,1,1,0,0,0,0
"356","ADZHJZ078THWQ","English",23,"male","low","low_la",8437,"0","1","1",0,"Diners A and E.","Diners C and F.","Diner C.","ms-l","ms-h","mo-h",0,1,0,1,1,0,1,0,1,0,1,0,0,0
"357","ADZHJZ078THWQ","English",23,"male","high","high_terrorism",10670,"1","0","1",0,"Stores E and B.","Store F.","Store E.","ms-h","mo-l","mo-h",0,1,1,1,0,0,1,0,1,0,1,0,0,0
"358","ADZHJZ078THWQ","English",23,"male","low","low_pic",24579,"1","0","1",0,"Location A.","Locations D and F.","Locations A and D.","mo-h","ms-l","ms-h",0,1,0,1,1,0,1,0,1,0,1,0,0,0
"364","A1TA2I82B8DJSA","English",36,"male","high","high_firefighter",33233,"1","1","0",0,"The fifth floor.","The fifth and second floors.","The first floor.","mo-h","ms-h","f",0,1,0,1,0,1,1,0,1,0,1,0,0,0
"365","A1TA2I82B8DJSA","English",36,"male","low","low_la",37450,"1","0","0",0,"Diners C and F.","Diners C, F, A, D, and E.","Diner E.","ms-h","exh","mo-l",1,0,1,1,0,0,1,0,0,0,1,0,0,0
"367","A1TA2I82B8DJSA","English",36,"male","high","high_fbi",31633,"1","1","1",0,"Place E.","Place F.","Places F and A.","mo-l","mo-h","ms-h",0,1,1,1,0,0,1,0,1,1,1,0,0,0
"368","A1TA2I82B8DJSA","English",36,"male","low","low_coffee",34316,"0","1","0",0,"Cafe D.","Cafes E and B.","Cafe A.","mo-l","ms-h","f",0,0,1,1,0,1,1,0,0,0,1,0,0,0
"370","A1TA2I82B8DJSA","English",36,"male","high","high_operative",70385,"1","1","0",0,"The Northeast district.","The Northeast, Southwest, South, Southeast and North districts.","The North district.","mo-h","exh","mo-l",1,1,1,0,0,0,1,1,1,0,0,0,0,0
"371","A1TA2I82B8DJSA","English",36,"male","low","low_pic",42201,"0","1","0",0,"Locations A, D, E, and F.","Location B.","Location A.","exh","f","mo-h",1,1,0,0,0,1,1,0,0,0,0,0,1,0
"372","A1TA2I82B8DJSA","English",36,"male","high","high_inspector",47934,"1","0","0",0,"Restaurant A.","Restaurant E.","Restaurants A and B.","mo-h","mo-l","ms-h",0,1,1,1,0,0,1,0,1,0,0,0,0,0
"374","A1TA2I82B8DJSA","English",36,"male","low","low_yoga",20665,"1","1","1",0,"Studio F.","Studios F and E.","Studio B.","mo-h","ms-h","mo-l",0,1,1,1,0,0,1,0,1,1,1,0,0,0
"375","A1TA2I82B8DJSA","English",36,"male","high","high_terrorism",20071,"1","1","0",0,"Stores E, B, A, D, and F.","Store C.","Stores E and B.","exh","f","ms-h",1,0,0,1,0,1,1,1,0,0,0,0,1,0
"376","A1TA2I82B8DJSA","English",36,"male","low","low_brother",28019,"0","1","0",0,"Stall B.","Stalls C and D.","Stalls A and B.","mo-l","ms-h","ms-l",0,0,1,1,1,0,1,0,0,0,1,0,0,0
"382","A1WOV2JIV5I9VE","english",22,"female","low","low_la",16826,"0","0","1",0,"Diner E.","Diners C, F, A, D, and E.","Diner B.","mo-l","exh","f",1,0,1,0,0,1,1,0,0,0,0,0,1,0
"383","A1WOV2JIV5I9VE","english",22,"female","high","high_fbi",12435,"1","0","0",0,"Places F, A, B, C and E.","Place E.","Places B and E.","exh","mo-l","ms-l",1,0,1,0,1,0,1,1,0,0,0,0,0,0
"384","A1WOV2JIV5I9VE","english",22,"female","low","low_pic",17964,"0","0","1",0,"Location F.","Locations D and F.","Location A.","mo-l","ms-l","mo-h",0,1,1,0,1,0,1,0,1,0,0,0,0,0
"386","A1WOV2JIV5I9VE","english",22,"female","high","high_operative",8354,"0","0","1",0,"The South and North districts.","The Northeast and Southwest districts.","The Northeast district.","ms-l","ms-h","mo-h",0,1,0,1,1,0,1,0,1,0,0,0,0,0
"387","A1WOV2JIV5I9VE","english",22,"female","low","low_brother",9744,"1","0","0",0,"Stalls C and D.","Stalls A and B.","Stall E.","ms-h","ms-l","f",0,0,0,1,1,1,1,0,0,0,1,0,0,0
"389","A1WOV2JIV5I9VE","english",22,"female","high","high_terrorism",11184,"1","0","0",0,"Stores E and B.","Store C.","Store F.","ms-h","f","mo-l",0,0,1,1,0,1,1,0,0,0,1,0,0,0
"390","A1WOV2JIV5I9VE","english",22,"female","low","low_coffee",9149,"0","1","0",0,"Cafes F and D.","Cafe E.","Cafe D.","ms-l","mo-h","mo-l",0,1,1,0,1,0,1,0,1,0,0,0,0,0
"391","A1WOV2JIV5I9VE","english",22,"female","high","high_inspector",6483,"0","0","1",0,"Restaurant E.","Restaurant F.","Restaurants A and B.","mo-l","f","ms-h",0,0,1,1,0,1,1,0,0,0,1,0,0,0
"393","A1WOV2JIV5I9VE","english",22,"female","low","low_yoga",6565,"1","0","0",0,"Studios F and E.","Studios C and B.","Studio B.","ms-h","ms-l","mo-l",0,0,1,1,1,0,1,0,0,0,1,0,0,0
"394","A1WOV2JIV5I9VE","english",22,"female","high","high_firefighter",4928,"1","0","0",0,"The fifth and second floors.","The sixth floor.","The fourth and sixth floors.","ms-h","mo-l","ms-l",0,0,1,1,1,0,1,0,0,0,1,0,0,0
"400","A1P0XSCJ9XAV74","English",34,"female","low","low_yoga",60211,"0","1","1",0,"Studios C and B.","Studios F and E.","Studio F.","ms-l","ms-h","mo-h",0,1,0,1,1,0,1,0,1,0,1,0,0,0
"401","A1P0XSCJ9XAV74","English",34,"female","high","high_terrorism",46269,"0","1","0",0,"Stores E, B, A, D, and F.","Stores E and B.","Stores A and F.","exh","ms-h","ms-l",1,0,0,1,1,0,1,0,0,0,1,0,0,0
"403","A1P0XSCJ9XAV74","English",34,"female","low","low_coffee",22102,"1","1","0",0,"Cafe E.","Cafes E and B.","Cafes F and D.","mo-h","ms-h","ms-l",0,1,0,1,1,0,1,0,1,0,1,0,0,0
"404","A1P0XSCJ9XAV74","English",34,"female","high","high_operative",59302,"0","0","1",0,"The South and North districts.","The West district.","The Northeast, Southwest, South, Southeast and North districts.","ms-l","f","exh",1,0,0,0,1,1,1,1,0,0,0,0,0,0
"406","A1P0XSCJ9XAV74","English",34,"female","low","low_la",37057,"1","0","1",0,"Diner C.","Diners A and E.","Diners C and F.","mo-h","ms-l","ms-h",0,1,0,1,1,0,1,0,1,0,1,0,0,0
"407","A1P0XSCJ9XAV74","English",34,"female","high","high_fbi",30344,"0","0","1",0,"Places B and E.","Place D.","Places F and A.","ms-l","f","ms-h",0,0,0,1,1,1,1,0,0,0,1,0,0,0
"408","A1P0XSCJ9XAV74","English",34,"female","low","low_brother",34609,"0","1","0",0,"Stall E.","Stalls C, D, A, F and B.","Stall B.","f","exh","mo-l",1,0,1,0,0,1,1,1,0,0,0,0,0,0
"410","A1P0XSCJ9XAV74","English",34,"female","high","high_firefighter",25415,"0","1","0",0,"The sixth floor.","The fifth floor.","The first floor.","mo-l","mo-h","f",0,1,1,0,0,1,1,0,1,0,0,0,0,0
"411","A1P0XSCJ9XAV74","English",34,"female","low","low_pic",18242,"1","0","0",0,"Locations A and D.","Location B.","Locations A, D, E, and F.","ms-h","f","exh",1,0,0,1,0,1,1,0,0,0,1,0,0,0
"412","A1P0XSCJ9XAV74","English",34,"female","high","high_inspector",30412,"0","0","0",1,"Restaurant E.","Restaurant A.","Restaurants C and E.","mo-l","mo-h","ms-l",0,1,1,0,1,0,1,0,0,0,0,0,0,1
"418","A1RZR5XTNOFBDE","English",28,"female","high","high_inspector",42071,"1","1","0",0,"Restaurants A and B.","Restaurant A.","Restaurant E.","ms-h","mo-h","mo-l",0,1,1,1,0,0,1,0,1,0,1,0,0,0
"419","A1RZR5XTNOFBDE","English",28,"female","low","low_brother",103266,"0","0","1",0,"Stalls C, D, A, F and B.","Stall C.","Stalls C and D.","exh","mo-h","ms-h",1,1,0,1,0,0,1,0,0,0,1,0,0,0
"421","A1RZR5XTNOFBDE","English",28,"female","high","high_fbi",68487,"1","0","0",0,"Places F and A.","Place E.","Places B and E.","ms-h","mo-l","ms-l",0,0,1,1,1,0,1,0,0,0,1,0,0,0
"422","A1RZR5XTNOFBDE","English",28,"female","low","low_yoga",14433,"1","1","0",0,"Studios F and E.","Studio A.","Studio B.","ms-h","f","mo-l",0,0,1,1,0,1,1,0,0,0,1,0,1,0
"424","A1RZR5XTNOFBDE","English",28,"female","high","high_terrorism",92146,"1","0","0",0,"Store E.","Store F.","Store C.","mo-h","mo-l","f",0,1,1,0,0,1,1,0,1,0,0,0,0,0
"425","A1RZR5XTNOFBDE","English",28,"female","low","low_coffee",19819,"0","0","1",0,"Cafes F and D.","Cafe D.","Cafes E and B.","ms-l","mo-l","ms-h",0,0,1,1,1,0,1,0,0,0,1,0,0,0
"426","A1RZR5XTNOFBDE","English",28,"female","high","high_firefighter",47685,"1","1","0",0,"The fifth floor.","The fifth and second floors.","The sixth floor.","mo-h","ms-h","mo-l",0,1,1,1,0,0,1,0,1,0,1,0,0,0
"428","A1RZR5XTNOFBDE","English",28,"female","low","low_la",59427,"1","0","0",0,"Diners C and F.","Diner E.","Diners A and E.","ms-h","mo-l","ms-l",0,0,1,1,1,0,1,0,0,0,1,0,0,0
"429","A1RZR5XTNOFBDE","English",28,"female","high","high_operative",44507,"0","1","1",0,"The South and North districts.","The Northeast and Southwest districts.","The Northeast district.","ms-l","ms-h","mo-h",0,1,0,1,1,0,1,0,1,0,1,0,0,0
"430","A1RZR5XTNOFBDE","English",28,"female","low","low_pic",65410,"0","0","1",0,"Location F.","Locations D and F.","Locations A and D.","mo-l","ms-l","ms-h",0,0,1,1,1,0,1,0,0,0,1,0,0,0
"436","A3OV174HQJIJK8","English",44,"male","low","low_brother",67337,"0","1","0",0,"Stall E.","Stalls A and B.","Stall C.","f","ms-l","mo-h",0,1,0,0,1,1,1,0,0,0,0,1,0,0
"437","A3OV174HQJIJK8","English",44,"male","high","high_firefighter",17293,"1","0","1",0,"The fifth and second floors.","The fourth and sixth floors.","The fifth floor.","ms-h","ms-l","mo-h",0,1,0,1,1,0,1,0,1,0,1,0,0,0
"439","A3OV174HQJIJK8","English",44,"male","low","low_la",140295,"1","1","0",0,"Diners C and F.","Diner C.","Diners A and E.","ms-h","mo-h","ms-l",0,1,0,1,1,0,1,0,1,0,1,0,0,0
"440","A3OV174HQJIJK8","English",44,"male","high","high_operative",39090,"0","0","0",1,"The West district.","The North district.","The South and North districts.","f","mo-l","ms-l",0,0,1,0,1,1,1,0,0,0,0,0,0,1
"442","A3OV174HQJIJK8","English",44,"male","low","low_yoga",17956,"0","1","0",0,"Studios C and B.","Studios F and E.","Studios F, E, D, C and B.","ms-l","ms-h","exh",1,0,0,1,1,0,1,0,0,0,1,0,0,0
"443","A3OV174HQJIJK8","English",44,"male","high","high_fbi",110497,"0","0","0",1,"Place F.","Place D.","Places F, A, B, C and E.","mo-h","f","exh",1,1,0,0,0,1,1,0,0,0,0,0,0,1
"444","A3OV174HQJIJK8","English",44,"male","low","low_pic",10843,"0","1","1",0,"Location F.","Location A.","Locations A and D.","mo-l","mo-h","ms-h",0,1,1,1,0,0,1,0,1,0,1,0,0,0
"446","A3OV174HQJIJK8","English",44,"male","high","high_inspector",39987,"0","1","1",0,"Restaurant E.","Restaurants A and B.","Restaurant A.","mo-l","ms-h","mo-h",0,1,1,1,0,0,1,0,1,0,1,0,0,0
"447","A3OV174HQJIJK8","English",44,"male","low","low_coffee",118207,"0","1","0",0,"Cafe A.","Cafes E and B.","Cafes F and D.","f","ms-h","ms-l",0,0,0,1,1,1,1,0,0,0,1,0,0,0
"448","A3OV174HQJIJK8","English",44,"male","high","high_terrorism",9379,"0","1","0",0,"Stores E, B, A, D, and F.","Store E.","Stores A and F.","exh","mo-h","ms-l",1,1,0,0,1,0,1,0,1,0,0,0,0,0
"454","AS1QMPXIT1EGX","English",38,"female","low","low_brother",61524,"0","0","0",1,"Stalls C, D, A, F and B.","Stall C.","Stalls A and B.","exh","mo-h","ms-l",1,1,0,0,1,0,1,0,0,0,0,0,0,1
"455","AS1QMPXIT1EGX","English",38,"female","high","high_terrorism",31873,"0","0","1",0,"Store F.","Stores A and F.","Store E.","mo-l","ms-l","mo-h",0,1,1,0,1,0,1,0,1,0,0,0,0,0
"456","AS1QMPXIT1EGX","English",38,"female","low","low_la",45674,"0","0","1",0,"Diner E.","Diners A and E.","Diners C, F, A, D, and E.","mo-l","ms-l","exh",1,0,1,0,1,0,1,1,0,0,0,0,0,0
"458","AS1QMPXIT1EGX","English",38,"female","high","high_firefighter",56469,"0","0","0",1,"The fifth floor.","The first floor.","The fourth and sixth floors.","mo-h","f","ms-l",0,1,0,0,1,1,1,0,0,0,0,0,0,1
"459","AS1QMPXIT1EGX","English",38,"female","low","low_pic",20261,"1","0","0",0,"Location A.","Location F.","Location B.","mo-h","mo-l","f",0,1,1,0,0,1,1,0,1,0,0,0,0,0
"461","AS1QMPXIT1EGX","English",38,"female","high","high_operative",64739,"0","1","0",0,"The Northeast and Southwest districts.","The Northeast, Southwest, South, Southeast and North districts.","The Northeast district.","ms-h","exh","mo-h",1,1,0,1,0,0,1,1,0,0,0,0,0,0
"462","AS1QMPXIT1EGX","English",38,"female","low","low_yoga",82974,"1","0","0",0,"Studio F.","Studios C and B.","Studio B.","mo-h","ms-l","mo-l",0,1,1,0,1,0,1,0,1,0,0,0,0,0
"463","AS1QMPXIT1EGX","English",38,"female","high","high_fbi",26526,"0","1","0",0,"Place F.","Places F, A, B, C and E.","Places F and A.","mo-h","exh","ms-h",1,1,0,1,0,0,1,1,0,0,0,0,0,0
"465","AS1QMPXIT1EGX","English",38,"female","low","low_coffee",22109,"0","0","1",0,"Cafe A.","Cafes E and B.","Cafe E.","f","ms-h","mo-h",0,1,0,1,0,1,1,0,1,0,0,0,0,0
"466","AS1QMPXIT1EGX","English",38,"female","high","high_inspector",30359,"0","1","0",0,"Restaurant E.","Restaurants A and B.","Restaurant A.","mo-l","ms-h","mo-h",0,1,1,1,0,0,1,0,0,0,1,0,0,0
"472","A17PAE30BGBO1T","English",40,"male","low","low_yoga",27773,"0","0","1",0,"Studios C and B.","Studio B.","Studios F and E.","ms-l","mo-l","ms-h",0,0,1,1,1,0,1,0,0,0,1,0,0,0
"473","A17PAE30BGBO1T","English",40,"male","high","high_firefighter",57264,"0","0","1",0,"The fifth floor.","The fifth and second floors.","The fifth, second, fourth, third and sixth floors.","mo-h","ms-h","exh",1,1,0,1,0,0,1,1,0,0,0,0,0,0
"474","A17PAE30BGBO1T","English",40,"male","low","low_coffee",31655,"0","1","0",0,"Cafe D.","Cafes E, B, F, C and D.","Cafe A.","mo-l","exh","f",1,0,1,0,0,1,1,1,0,0,0,0,0,0
"476","A17PAE30BGBO1T","English",40,"male","high","high_inspector",44832,"1","0","0",0,"Restaurants A, B, C, D, and E.","Restaurants C and E.","Restaurant E.","exh","ms-l","mo-l",1,0,1,0,1,0,1,1,0,0,0,0,0,0
"477","A17PAE30BGBO1T","English",40,"male","low","low_brother",29664,"0","0","1",0,"Stall E.","Stall C.","Stalls C and D.","f","mo-h","ms-h",0,1,0,1,0,1,1,0,0,0,1,0,0,0
"479","A17PAE30BGBO1T","English",40,"male","high","high_fbi",23306,"1","0","0",0,"Places F, A, B, C and E.","Places B and E.","Place D.","exh","ms-l","f",1,0,0,0,1,1,1,1,0,0,0,0,0,0
"480","A17PAE30BGBO1T","English",40,"male","low","low_pic",16849,"1","0","0",0,"Location A.","Location F.","Location B.","mo-h","mo-l","f",0,1,1,0,0,1,1,0,1,0,0,0,0,0
"481","A17PAE30BGBO1T","English",40,"male","high","high_operative",24989,"0","0","1",0,"The North district.","The Northeast district.","The Northeast, Southwest, South, Southeast and North districts.","mo-l","mo-h","exh",1,1,1,0,0,0,1,1,0,0,0,0,0,0
"483","A17PAE30BGBO1T","English",40,"male","low","low_la",9767,"0","1","0",0,"Diners A and E.","Diners C and F.","Diner E.","ms-l","ms-h","mo-l",0,0,1,1,1,0,1,0,0,0,1,0,0,0
"484","A17PAE30BGBO1T","English",40,"male","high","high_terrorism",30217,"0","1","0",0,"Store C.","Stores E, B, A, D, and F.","Store F.","f","exh","mo-l",1,0,1,0,0,1,1,1,0,0,0,0,0,0
"490","A2EPBSY0VPI38S","english",48,"female","low","low_yoga",48025,"1","1","1",0,"Studios F, E, D, C and B.","Studio A.","Studio F.","exh","f","mo-h",1,1,0,0,0,1,1,1,1,0,0,0,1,0
"491","A2EPBSY0VPI38S","english",48,"female","high","high_operative",99386,"1","1","1",0,"The South and North districts.","The Northeast, Southwest, South, Southeast and North districts.","The Northeast and Southwest districts.","ms-l","exh","ms-h",1,0,0,1,1,0,1,1,0,0,1,1,0,0
"493","A2EPBSY0VPI38S","english",48,"female","low","low_brother",29353,"1","1","0",0,"Stall B.","Stalls A and B.","Stall E.","mo-l","ms-l","f",0,0,1,0,1,1,1,0,0,1,0,1,0,0
"494","A2EPBSY0VPI38S","english",48,"female","high","high_fbi",66269,"1","1","1",0,"Place E.","Places B and E.","Place F.","mo-l","ms-l","mo-h",0,1,1,0,1,0,1,0,1,1,0,1,0,0
"496","A2EPBSY0VPI38S","english",48,"female","low","low_la",41578,"1","1","1",0,"Diner B.","Diners C, F, A, D, and E.","Diner E.","f","exh","mo-l",1,0,1,0,0,1,1,1,0,1,0,0,1,0
"497","A2EPBSY0VPI38S","english",48,"female","high","high_terrorism",39153,"1","0","1",0,"Store E.","Stores E, B, A, D, and F.","Stores E and B.","mo-h","exh","ms-h",1,1,0,1,0,0,1,0,1,0,1,0,0,0
"498","A2EPBSY0VPI38S","english",48,"female","low","low_coffee",27713,"1","1","1",0,"Cafes E, B, F, C and D.","Cafes F and D.","Cafes E and B.","exh","ms-l","ms-h",1,0,0,1,1,0,1,1,0,0,1,1,0,0
"500","A2EPBSY0VPI38S","english",48,"female","high","high_inspector",40191,"1","1","1",0,"Restaurants C and E.","Restaurant A.","Restaurant E.","ms-l","mo-h","mo-l",0,1,1,0,1,0,1,0,1,1,0,1,0,0
"501","A2EPBSY0VPI38S","english",48,"female","low","low_pic",52121,"1","0","1",0,"Locations A and D.","Location F.","Location A.","ms-h","mo-l","mo-h",0,1,1,1,0,0,1,0,1,0,1,0,0,0
"502","A2EPBSY0VPI38S","english",48,"female","high","high_firefighter",69569,"0","0","1",0,"The fourth and sixth floors.","The fifth floor.","The fifth, second, fourth, third and sixth floors.","ms-l","mo-h","exh",1,1,0,0,1,0,1,1,0,0,0,0,0,0
"508","A2GN5L03ZQEOZF","English",25,"female","high","high_fbi",29145,"1","0","0",0,"Places F and A.","Places B and E.","Place F.","ms-h","ms-l","mo-h",0,1,0,1,1,0,1,0,0,0,1,0,0,0
"509","A2GN5L03ZQEOZF","English",25,"female","low","low_yoga",30463,"0","0","1",0,"Studios F and E.","Studio B.","Studio F.","ms-h","mo-l","mo-h",0,1,1,1,0,0,1,0,1,0,0,0,0,0
"511","A2GN5L03ZQEOZF","English",25,"female","high","high_firefighter",68906,"1","1","1",0,"The fourth and sixth floors.","The fifth and second floors.","The sixth floor.","ms-l","ms-h","mo-l",0,0,1,1,1,0,1,0,0,1,1,1,0,0
"512","A2GN5L03ZQEOZF","English",25,"female","low","low_brother",35860,"1","1","1",0,"Stall B.","Stall C.","Stalls C and D.","mo-l","mo-h","ms-h",0,1,1,1,0,0,1,0,1,1,1,0,0,0
"514","A2GN5L03ZQEOZF","English",25,"female","high","high_operative",73284,"0","0","1",0,"The North district.","The South and North districts.","The Northeast and Southwest districts.","mo-l","ms-l","ms-h",0,0,1,1,1,0,1,0,0,0,1,0,0,0
"515","A2GN5L03ZQEOZF","English",25,"female","low","low_pic",31912,"0","0","1",0,"Locations D and F.","Location F.","Locations A and D.","ms-l","mo-l","ms-h",0,0,1,1,1,0,1,0,0,0,1,0,0,0
"516","A2GN5L03ZQEOZF","English",25,"female","high","high_inspector",31471,"1","1","1",0,"Restaurant E.","Restaurants A and B.","Restaurant A.","mo-l","ms-h","mo-h",0,1,1,1,0,0,1,0,1,1,1,0,0,0
"518","A2GN5L03ZQEOZF","English",25,"female","low","low_la",53815,"1","1","1",0,"Diner E.","Diners C and F.","Diners A and E.","mo-l","ms-h","ms-l",0,0,1,1,1,0,1,0,0,1,1,1,0,0
"519","A2GN5L03ZQEOZF","English",25,"female","high","high_terrorism",30414,"0","1","0",0,"Stores E and B.","Stores E, B, A, D, and F.","Store F.","ms-h","exh","mo-l",1,0,1,1,0,0,1,1,0,0,0,0,0,0
"520","A2GN5L03ZQEOZF","English",25,"female","low","low_coffee",19443,"1","1","0",0,"Cafes E and B.","Cafe E.","Cafe D.","ms-h","mo-h","mo-l",0,1,1,1,0,0,1,0,1,0,1,0,0,0
"526","A2EUXA84IMO859","English",44,"female","low","low_coffee",51777,"0","0","1",0,"Cafe D.","Cafe A.","Cafes E, B, F, C and D.","mo-l","f","exh",1,0,1,0,0,1,1,1,0,0,0,0,0,0
"527","A2EUXA84IMO859","English",44,"female","high","high_terrorism",29618,"1","1","0",0,"Stores E and B.","Store E.","Stores A and F.","ms-h","mo-h","ms-l",0,1,0,1,1,0,1,0,1,0,1,0,0,0
"529","A2EUXA84IMO859","English",44,"female","low","low_pic",21960,"0","0","1",0,"Locations D and F.","Locations A and D.","Location A.","ms-l","ms-h","mo-h",0,1,0,1,1,0,1,0,1,0,0,0,0,0
"530","A2EUXA84IMO859","English",44,"female","high","high_fbi",15296,"0","0","1",0,"Place E.","Places B and E.","Places F and A.","mo-l","ms-l","ms-h",0,0,1,1,1,0,1,0,0,0,1,0,0,0
"532","A2EUXA84IMO859","English",44,"female","low","low_la",8259,"0","0","1",0,"Diners C, F, A, D, and E.","Diner E.","Diner C.","exh","mo-l","mo-h",1,1,1,0,0,0,1,0,1,0,0,0,0,0
"533","A2EUXA84IMO859","English",44,"female","high","high_operative",21906,"0","0","1",0,"The South and North districts.","The North district.","The Northeast and Southwest districts.","ms-l","mo-l","ms-h",0,0,1,1,1,0,1,0,0,0,1,0,0,0
"534","A2EUXA84IMO859","English",44,"female","low","low_brother",18023,"1","0","0",0,"Stall C.","Stalls C, D, A, F and B.","Stalls A and B.","mo-h","exh","ms-l",1,1,0,0,1,0,1,0,1,0,0,0,0,0
"536","A2EUXA84IMO859","English",44,"female","high","high_firefighter",24749,"1","1","1",0,"The fourth and sixth floors.","The fifth floor.","The first floor.","ms-l","mo-h","f",0,1,0,0,1,1,1,0,1,0,0,1,1,0
"537","A2EUXA84IMO859","English",44,"female","low","low_yoga",12390,"1","1","1",0,"Studio A.","Studios C and B.","Studio B.","f","ms-l","mo-l",0,0,1,0,1,1,1,0,0,1,0,1,1,0
"538","A2EUXA84IMO859","English",44,"female","high","high_inspector",29641,"1","1","1",0,"Restaurants A, B, C, D, and E.","Restaurants A and B.","Restaurant E.","exh","ms-h","mo-l",1,0,1,1,0,0,1,1,0,1,1,0,0,0
"544","A3DB11T127QKJF","english",27,"male","high","high_fbi",62039,"1","1","1",0,"Places F and A.","Place E.","Places B and E.","ms-h","mo-l","ms-l",0,0,1,1,1,0,1,0,0,1,1,1,0,0
"545","A3DB11T127QKJF","english",27,"male","low","low_yoga",21925,"1","1","1",0,"Studios F and E.","Studio B.","Studio F.","ms-h","mo-l","mo-h",0,1,1,1,0,0,1,0,1,1,1,0,0,0
"546","A3DB11T127QKJF","english",27,"male","high","high_operative",64545,"1","1","1",0,"The Northeast, Southwest, South, Southeast and North districts.","The North district.","The Northeast and Southwest districts.","exh","mo-l","ms-h",1,0,1,1,0,0,1,1,0,1,1,0,0,0
"548","A3DB11T127QKJF","english",27,"male","low","low_brother",38631,"1","1","1",0,"Stalls A and B.","Stalls C and D.","Stalls C, D, A, F and B.","ms-l","ms-h","exh",1,0,0,1,1,0,1,1,0,0,1,1,0,0
"549","A3DB11T127QKJF","english",27,"male","high","high_inspector",23019,"1","1","1",0,"Restaurant E.","Restaurant A.","Restaurants C and E.","mo-l","mo-h","ms-l",0,1,1,0,1,0,1,0,1,1,0,1,0,0
"551","A3DB11T127QKJF","english",27,"male","low","low_pic",33537,"0","1","1",0,"Location B.","Locations D and F.","Location F.","f","ms-l","mo-l",0,0,1,0,1,1,1,0,0,1,0,1,0,0
"552","A3DB11T127QKJF","english",27,"male","high","high_terrorism",23445,"1","1","1",0,"Stores E, B, A, D, and F.","Stores A and F.","Store E.","exh","ms-l","mo-h",1,1,0,0,1,0,1,1,1,0,0,1,0,0
"553","A3DB11T127QKJF","english",27,"male","low","low_coffee",11577,"1","1","0",0,"Cafes E and B.","Cafe E.","Cafe A.","ms-h","mo-h","f",0,1,0,1,0,1,1,0,1,0,1,0,0,0
"555","A3DB11T127QKJF","english",27,"male","high","high_firefighter",9918,"1","1","0",0,"The fourth and sixth floors.","The fifth floor.","The first floor.","ms-l","mo-h","f",0,1,0,0,1,1,1,0,1,0,0,1,0,0
"556","A3DB11T127QKJF","english",27,"male","low","low_la",11712,"1","1","1",0,"Diner C.","Diners C and F.","Diner E.","mo-h","ms-h","mo-l",0,1,1,1,0,0,1,0,1,1,1,0,0,0
"562","A187VXD4ETY6M2","English",32,"female","low","low_yoga",23294,"0","1","0",0,"Studios F and E.","Studio F.","Studio B.","ms-h","mo-h","mo-l",0,1,1,1,0,0,1,0,1,0,0,0,0,0
"563","A187VXD4ETY6M2","English",32,"female","high","high_firefighter",24202,"1","0","0",0,"The fifth and second floors.","The sixth floor.","The fourth and sixth floors.","ms-h","mo-l","ms-l",0,0,1,1,1,0,1,0,0,0,1,0,0,0
"565","A187VXD4ETY6M2","English",32,"female","low","low_pic",73025,"1","0","0",0,"Locations A, D, E, and F.","Location F.","Locations D and F.","exh","mo-l","ms-l",1,0,1,0,1,0,1,1,0,0,0,0,0,0
"566","A187VXD4ETY6M2","English",32,"female","high","high_terrorism",26511,"1","0","1",0,"Store E.","Store C.","Stores E and B.","mo-h","f","ms-h",0,1,0,1,0,1,1,0,1,0,1,0,0,0
"568","A187VXD4ETY6M2","English",32,"female","low","low_brother",39848,"1","0","1",0,"Stalls A and B.","Stall E.","Stalls C and D.","ms-l","f","ms-h",0,0,0,1,1,1,1,0,0,0,1,1,0,0
"569","A187VXD4ETY6M2","English",32,"female","high","high_operative",74089,"0","0","0",1,"The West district.","The South and North districts.","The North district.","f","ms-l","mo-l",0,0,1,0,1,1,1,0,0,0,0,0,0,1
"570","A187VXD4ETY6M2","English",32,"female","low","low_la",16962,"1","0","1",0,"Diners C, F, A, D, and E.","Diner E.","Diners C and F.","exh","mo-l","ms-h",1,0,1,1,0,0,1,1,0,0,1,0,0,0
"572","A187VXD4ETY6M2","English",32,"female","high","high_inspector",32469,"0","0","1",0,"Restaurant E.","Restaurants C and E.","Restaurants A, B, C, D, and E.","mo-l","ms-l","exh",1,0,1,0,1,0,1,1,0,0,0,0,0,0
"573","A187VXD4ETY6M2","English",32,"female","low","low_coffee",26879,"1","1","0",0,"Cafes E and B.","Cafes E, B, F, C and D.","Cafe A.","ms-h","exh","f",1,0,0,1,0,1,1,1,0,0,1,0,0,0
"574","A187VXD4ETY6M2","English",32,"female","high","high_fbi",61546,"0","0","0",1,"Place D.","Place F.","Place E.","f","mo-h","mo-l",0,1,1,0,0,1,1,0,0,0,0,0,0,1
"580","A1USR9JCAMDGM3","English",32,"female","high","high_firefighter",49560,"1","1","1",0,"The fifth and second floors.","The fifth floor.","The fifth, second, fourth, third and sixth floors.","ms-h","mo-h","exh",1,1,0,1,0,0,1,1,1,0,1,0,0,0
"581","A1USR9JCAMDGM3","English",32,"female","low","low_brother",31787,"1","1","1",0,"Stall E.","Stalls C and D.","Stall C.","f","ms-h","mo-h",0,1,0,1,0,1,1,0,1,0,1,0,1,0
"583","A1USR9JCAMDGM3","English",32,"female","high","high_terrorism",16672,"1","1","1",0,"Stores E, B, A, D, and F.","Store E.","Stores E and B.","exh","mo-h","ms-h",1,1,0,1,0,0,1,1,1,0,1,0,0,0
"584","A1USR9JCAMDGM3","English",32,"female","low","low_la",21884,"0","1","0",0,"Diners C, F, A, D, and E.","Diner C.","Diner B.","exh","mo-h","f",1,1,0,0,0,1,1,0,1,0,0,0,0,0
"586","A1USR9JCAMDGM3","English",32,"female","high","high_inspector",29154,"0","0","1",0,"Restaurants C and E.","Restaurant F.","Restaurant A.","ms-l","f","mo-h",0,1,0,0,1,1,1,0,1,0,0,0,0,0
"587","A1USR9JCAMDGM3","English",32,"female","low","low_yoga",7600,"0","1","0",0,"Studio B.","Studio F.","Studios C and B.","mo-l","mo-h","ms-l",0,1,1,0,1,0,1,0,1,0,0,0,0,0
"588","A1USR9JCAMDGM3","English",32,"female","high","high_fbi",7208,"0","1","1",0,"Places B and E.","Place F.","Places F and A.","ms-l","mo-h","ms-h",0,1,0,1,1,0,1,0,1,0,1,0,0,0
"590","A1USR9JCAMDGM3","English",32,"female","low","low_coffee",9437,"0","1","0",0,"Cafe D.","Cafes E and B.","Cafes F and D.","mo-l","ms-h","ms-l",0,0,1,1,1,0,1,0,0,0,1,0,0,0
"591","A1USR9JCAMDGM3","English",32,"female","high","high_operative",18588,"1","0","1",0,"The Northeast, Southwest, South, Southeast and North districts.","The West district.","The Northeast district.","exh","f","mo-h",1,1,0,0,0,1,1,1,1,0,0,0,0,0
"592","A1USR9JCAMDGM3","English",32,"female","low","low_pic",10355,"0","1","1",0,"Location B.","Locations A, D, E, and F.","Location A.","f","exh","mo-h",1,1,0,0,0,1,1,1,1,0,0,0,0,0
"598","A1IS0218RVG60K","English",39,"female","low","low_yoga",19542,"1","1","1",0,"Studio A.","Studio F.","Studios F and E.","f","mo-h","ms-h",0,1,0,1,0,1,1,0,1,0,1,0,1,0
"599","A1IS0218RVG60K","English",39,"female","high","high_fbi",16138,"1","1","1",0,"Places F, A, B, C and E.","Places F and A.","Place D.","exh","ms-h","f",1,0,0,1,0,1,1,1,0,0,1,0,1,0
"600","A1IS0218RVG60K","English",39,"female","low","low_pic",66712,"0","0","1",0,"Location B.","Location F.","Location A.","f","mo-l","mo-h",0,1,1,0,0,1,1,0,1,0,0,0,0,0
"602","A1IS0218RVG60K","English",39,"female","high","high_firefighter",12550,"1","1","0",0,"The fifth, second, fourth, third and sixth floors.","The fifth and second floors.","The first floor.","exh","ms-h","f",1,0,0,1,0,1,1,1,0,0,1,0,0,0
"603","A1IS0218RVG60K","English",39,"female","low","low_coffee",13814,"1","0","0",0,"Cafe E.","Cafe D.","Cafes F and D.","mo-h","mo-l","ms-l",0,1,1,0,1,0,1,0,1,0,0,0,0,0
"605","A1IS0218RVG60K","English",39,"female","high","high_operative",19366,"1","0","1",0,"The South and North districts.","The North district.","The Northeast and Southwest districts.","ms-l","mo-l","ms-h",0,0,1,1,1,0,1,0,0,0,1,1,0,0
"606","A1IS0218RVG60K","English",39,"female","low","low_brother",114864,"1","1","1",0,"Stalls A and B.","Stall C.","Stalls C and D.","ms-l","mo-h","ms-h",0,1,0,1,1,0,1,0,1,0,1,1,0,0
"607","A1IS0218RVG60K","English",39,"female","high","high_inspector",12110,"1","1","1",0,"Restaurant E.","Restaurants A and B.","Restaurants C and E.","mo-l","ms-h","ms-l",0,0,1,1,1,0,1,0,0,1,1,1,0,0
"609","A1IS0218RVG60K","English",39,"female","low","low_la",9198,"1","1","1",0,"Diner E.","Diners C and F.","Diners A and E.","mo-l","ms-h","ms-l",0,0,1,1,1,0,1,0,0,1,1,1,0,0
"610","A1IS0218RVG60K","English",39,"female","high","high_terrorism",14588,"1","0","1",0,"Stores E and B.","Store F.","Stores A and F.","ms-h","mo-l","ms-l",0,0,1,1,1,0,1,0,0,0,1,1,0,0
"616","A39DNHD26OMN4Q","english",24,"male","high","high_terrorism",3888,"0","1","0",0,"Store C.","Store E.","Store F.","f","mo-h","mo-l",0,1,1,0,0,1,1,0,1,0,0,0,0,0
"617","A39DNHD26OMN4Q","english",24,"male","low","low_yoga",2314,"0","0","1",0,"Studios C and B.","Studio B.","Studio F.","ms-l","mo-l","mo-h",0,1,1,0,1,0,1,0,1,0,0,0,0,0
"619","A39DNHD26OMN4Q","english",24,"male","high","high_fbi",13196,"1","1","1",0,"Place D.","Place E.","Places F and A.","f","mo-l","ms-h",0,0,1,1,0,1,1,0,0,1,1,0,1,0
"620","A39DNHD26OMN4Q","english",24,"male","low","low_pic",33250,"1","1","1",0,"Location F.","Location A.","Locations A, D, E, and F.","mo-l","mo-h","exh",1,1,1,0,0,0,1,1,1,1,0,0,0,0
"622","A39DNHD26OMN4Q","english",24,"male","high","high_inspector",4019,"0","1","0",0,"Restaurant E.","Restaurants A, B, C, D, and E.","Restaurants A and B.","mo-l","exh","ms-h",1,0,1,1,0,0,1,1,0,0,0,0,0,0
"623","A39DNHD26OMN4Q","english",24,"male","low","low_coffee",2244,"0","0","1",0,"Cafes F and D.","Cafes E and B.","Cafe E.","ms-l","ms-h","mo-h",0,1,0,1,1,0,1,0,1,0,0,0,0,0
"624","A39DNHD26OMN4Q","english",24,"male","high","high_firefighter",4395,"0","1","0",0,"The sixth floor.","The fifth and second floors.","The fifth floor.","mo-l","ms-h","mo-h",0,1,1,1,0,0,1,0,0,0,1,0,0,0
"626","A39DNHD26OMN4Q","english",24,"male","low","low_brother",3762,"0","1","0",0,"Stalls C and D.","Stall B.","Stall C.","ms-h","mo-l","mo-h",0,1,1,1,0,0,1,0,0,1,0,0,0,0
"627","A39DNHD26OMN4Q","english",24,"male","high","high_operative",3009,"0","1","0",0,"The North district.","The South and North districts.","The Northeast district.","mo-l","ms-l","mo-h",0,1,1,0,1,0,1,0,0,0,0,1,0,0
"628","A39DNHD26OMN4Q","english",24,"male","low","low_la",2301,"0","1","0",0,"Diner C.","Diners C and F.","Diner E.","mo-h","ms-h","mo-l",0,1,1,1,0,0,1,0,0,0,1,0,0,0
"634","A1V9G7V6ZYACIR","english",28,"male","high","high_terrorism",56352,"1","0","0",0,"Store C.","Store F.","Stores E and B.","f","mo-l","ms-h",0,0,1,1,0,1,1,0,0,0,0,0,1,0
"635","A1V9G7V6ZYACIR","english",28,"male","low","low_brother",36309,"1","1","1",0,"Stalls A and B.","Stalls C and D.","Stall B.","ms-l","ms-h","mo-l",0,0,1,1,1,0,1,0,0,1,1,1,0,0
"637","A1V9G7V6ZYACIR","english",28,"male","high","high_inspector",19806,"1","1","1",0,"Restaurant E.","Restaurants A and B.","Restaurants C and E.","mo-l","ms-h","ms-l",0,0,1,1,1,0,1,0,0,1,1,1,0,0
"638","A1V9G7V6ZYACIR","english",28,"male","low","low_pic",27924,"0","0","1",0,"Location F.","Location A.","Locations D and F.","mo-l","mo-h","ms-l",0,1,1,0,1,0,1,0,0,0,0,1,0,0
"640","A1V9G7V6ZYACIR","english",28,"male","high","high_operative",29334,"0","0","1",0,"The South and North districts.","The North district.","The Northeast district.","ms-l","mo-l","mo-h",0,1,1,0,1,0,1,0,1,0,0,0,0,0
"641","A1V9G7V6ZYACIR","english",28,"male","low","low_coffee",13803,"1","1","0",0,"Cafes E and B.","Cafe E.","Cafe A.","ms-h","mo-h","f",0,1,0,1,0,1,1,0,1,0,1,0,0,0
"642","A1V9G7V6ZYACIR","english",28,"male","high","high_fbi",236961,"0","1","1",0,"Place E.","Place F.","Places F, A, B, C and E.","mo-l","mo-h","exh",1,1,1,0,0,0,1,1,1,0,0,0,0,0
"644","A1V9G7V6ZYACIR","english",28,"male","low","low_la",138785,"1","1","1",0,"Diners C, F, A, D, and E.","Diners A and E.","Diner E.","exh","ms-l","mo-l",1,0,1,0,1,0,1,1,0,1,0,1,0,0
"645","A1V9G7V6ZYACIR","english",28,"male","high","high_firefighter",20917,"1","1","1",0,"The fourth and sixth floors.","The sixth floor.","The fifth and second floors.","ms-l","mo-l","ms-h",0,0,1,1,1,0,1,0,0,1,1,1,0,0
"646","A1V9G7V6ZYACIR","english",28,"male","low","low_yoga",10656,"1","1","1",0,"Studios C and B.","Studios F and E.","Studio F.","ms-l","ms-h","mo-h",0,1,0,1,1,0,1,0,1,0,1,1,0,0
"652","AM2KK02JXXW48","English",40,"male","high","high_firefighter",44338,"1","1","1",0,"The fifth, second, fourth, third and sixth floors.","The fifth and second floors.","The sixth floor.","exh","ms-h","mo-l",1,0,1,1,0,0,1,1,0,1,1,0,0,0
"653","AM2KK02JXXW48","English",40,"male","low","low_brother",38529,"1","1","1",0,"Stalls A and B.","Stall C.","Stalls C and D.","ms-l","mo-h","ms-h",0,1,0,1,1,0,1,0,1,0,1,1,0,0
"654","AM2KK02JXXW48","English",40,"male","high","high_inspector",29334,"1","1","1",0,"Restaurant A.","Restaurant E.","Restaurants A and B.","mo-h","mo-l","ms-h",0,1,1,1,0,0,1,0,1,1,1,0,0,0
"656","AM2KK02JXXW48","English",40,"male","low","low_pic",24289,"1","1","1",0,"Locations A and D.","Location A.","Locations D and F.","ms-h","mo-h","ms-l",0,1,0,1,1,0,1,0,1,0,1,1,0,0
"657","AM2KK02JXXW48","English",40,"male","high","high_operative",68373,"1","1","1",0,"The Northeast, Southwest, South, Southeast and North districts.","The Northeast district.","The South and North districts.","exh","mo-h","ms-l",1,1,0,0,1,0,1,1,1,0,0,1,0,0
"659","AM2KK02JXXW48","English",40,"male","low","low_coffee",26632,"1","1","0",0,"Cafes E and B.","Cafes F and D.","Cafe A.","ms-h","ms-l","f",0,0,0,1,1,1,1,0,0,0,1,1,0,0
"660","AM2KK02JXXW48","English",40,"male","high","high_terrorism",41835,"1","1","0",0,"Store E.","Store F.","Store C.","mo-h","mo-l","f",0,1,1,0,0,1,1,0,1,1,0,0,0,0
"661","AM2KK02JXXW48","English",40,"male","low","low_yoga",33599,"1","1","1",0,"Studio F.","Studio B.","Studios C and B.","mo-h","mo-l","ms-l",0,1,1,0,1,0,1,0,1,1,0,1,0,0
"663","AM2KK02JXXW48","English",40,"male","high","high_fbi",37447,"0","1","1",0,"Place D.","Places F and A.","Place F.","f","ms-h","mo-h",0,1,0,1,0,1,1,0,1,0,1,0,0,0
"664","AM2KK02JXXW48","English",40,"male","low","low_la",106470,"1","1","1",0,"Diners C and F.","Diner B.","Diners A and E.","ms-h","f","ms-l",0,0,0,1,1,1,1,0,0,0,1,1,1,0
"670","A3L2UB07EZJAMD","English",49,"male","high","high_operative",77881,"1","0","0",0,"The Northeast, Southwest, South, Southeast and North districts.","The South and North districts.","The Northeast district.","exh","ms-l","mo-h",1,1,0,0,1,0,1,1,0,0,0,0,0,0
"671","A3L2UB07EZJAMD","English",49,"male","low","low_la",32379,"1","0","0",0,"Diners C and F.","Diner E.","Diners A and E.","ms-h","mo-l","ms-l",0,0,1,1,1,0,1,0,0,0,1,0,0,0
"673","A3L2UB07EZJAMD","English",49,"male","high","high_firefighter",121512,"0","0","1",0,"The fifth floor.","The fourth and sixth floors.","The fifth and second floors.","mo-h","ms-l","ms-h",0,1,0,1,1,0,1,0,0,0,1,0,0,0
"674","A3L2UB07EZJAMD","English",49,"male","low","low_coffee",38802,"1","0","1",0,"Cafe E.","Cafe A.","Cafes E, B, F, C and D.","mo-h","f","exh",1,1,0,0,0,1,1,1,1,0,0,0,0,0
"676","A3L2UB07EZJAMD","English",49,"male","high","high_terrorism",70790,"1","0","0",0,"Stores E and B.","Stores E, B, A, D, and F.","Store E.","ms-h","exh","mo-h",1,1,0,1,0,0,1,0,0,0,1,0,0,0
"677","A3L2UB07EZJAMD","English",49,"male","low","low_yoga",15201,"0","0","1",0,"Studio A.","Studios C and B.","Studios F and E.","f","ms-l","ms-h",0,0,0,1,1,1,1,0,0,0,1,0,0,0
"678","A3L2UB07EZJAMD","English",49,"male","high","high_fbi",22736,"0","0","0",1,"Place E.","Place D.","Places B and E.","mo-l","f","ms-l",0,0,1,0,1,1,1,0,0,0,0,0,0,1
"680","A3L2UB07EZJAMD","English",49,"male","low","low_brother",28155,"0","1","0",0,"Stall E.","Stalls C and D.","Stalls A and B.","f","ms-h","ms-l",0,0,0,1,1,1,1,0,0,0,1,0,0,0
"681","A3L2UB07EZJAMD","English",49,"male","high","high_inspector",42396,"0","0","1",0,"Restaurants C and E.","Restaurant A.","Restaurants A and B.","ms-l","mo-h","ms-h",0,1,0,1,1,0,1,0,0,0,1,0,0,0
"682","A3L2UB07EZJAMD","English",49,"male","low","low_pic",22843,"0","1","0",0,"Locations D and F.","Locations A, D, E, and F.","Location B.","ms-l","exh","f",1,0,0,0,1,1,1,1,0,0,0,0,0,0
"688","A28SYXQL3YOKVL","english",33,"male","high","high_inspector",85228,"0","1","1",0,"Restaurant F.","Restaurants C and E.","Restaurant A.","f","ms-l","mo-h",0,1,0,0,1,1,1,0,1,0,0,1,0,0
"689","A28SYXQL3YOKVL","english",33,"male","low","low_yoga",44480,"1","1","1",0,"Studios C and B.","Studio F.","Studios F and E.","ms-l","mo-h","ms-h",0,1,0,1,1,0,1,0,1,0,1,1,0,0
"691","A28SYXQL3YOKVL","english",33,"male","high","high_fbi",63565,"1","1","1",0,"Places F and A.","Places B and E.","Place D.","ms-h","ms-l","f",0,0,0,1,1,1,1,0,0,0,1,1,1,0
"692","A28SYXQL3YOKVL","english",33,"male","low","low_la",40578,"1","1","1",0,"Diner C.","Diners C and F.","Diner E.","mo-h","ms-h","mo-l",0,1,1,1,0,0,1,0,1,1,1,0,0,0
"694","A28SYXQL3YOKVL","english",33,"male","high","high_terrorism",52314,"1","1","1",0,"Stores E, B, A, D, and F.","Stores E and B.","Stores A and F.","exh","ms-h","ms-l",1,0,0,1,1,0,1,1,0,0,1,1,0,0
"695","A28SYXQL3YOKVL","english",33,"male","low","low_coffee",61461,"1","1","1",0,"Cafes E and B.","Cafe A.","Cafe D.","ms-h","f","mo-l",0,0,1,1,0,1,1,0,0,1,1,0,1,0
"696","A28SYXQL3YOKVL","english",33,"male","high","high_firefighter",43025,"0","1","1",0,"The first floor.","The sixth floor.","The fifth and second floors.","f","mo-l","ms-h",0,0,1,1,0,1,1,0,0,1,1,0,0,0
"698","A28SYXQL3YOKVL","english",33,"male","low","low_pic",34291,"1","1","1",0,"Location B.","Location A.","Location F.","f","mo-h","mo-l",0,1,1,0,0,1,1,0,1,1,0,0,1,0
"699","A28SYXQL3YOKVL","english",33,"male","high","high_operative",54755,"1","1","1",0,"The South and North districts.","The Northeast district.","The North district.","ms-l","mo-h","mo-l",0,1,1,0,1,0,1,0,1,1,0,1,0,0
"700","A28SYXQL3YOKVL","english",33,"male","low","low_brother",43464,"1","1","1",0,"Stalls C and D.","Stalls C, D, A, F and B.","Stall C.","ms-h","exh","mo-h",1,1,0,1,0,0,1,1,1,0,1,0,0,0
"706","A1CY01G7686ORZ","english",35,"female","high","high_operative",30293,"0","1","0",0,"The South and North districts.","The Northeast and Southwest districts.","The Northeast district.","ms-l","ms-h","mo-h",0,1,0,1,1,0,1,0,0,0,1,0,0,0
"707","A1CY01G7686ORZ","english",35,"female","low","low_brother",25499,"0","1","1",1,"Stall E.","Stall C.","Stalls C and D.","f","mo-h","ms-h",0,1,0,1,0,1,1,0,1,0,1,0,0,1
"708","A1CY01G7686ORZ","english",35,"female","high","high_firefighter",47727,"1","0","0",0,"The fifth and second floors.","The first floor.","The sixth floor.","ms-h","f","mo-l",0,0,1,1,0,1,1,0,0,0,1,0,0,0
"710","A1CY01G7686ORZ","english",35,"female","low","low_coffee",50578,"0","1","1",0,"Cafe D.","Cafes E and B.","Cafe E.","mo-l","ms-h","mo-h",0,1,1,1,0,0,1,0,1,0,1,0,0,0
"711","A1CY01G7686ORZ","english",35,"female","high","high_inspector",13581,"1","0","0",0,"Restaurants A and B.","Restaurant F.","Restaurants C and E.","ms-h","f","ms-l",0,0,0,1,1,1,1,0,0,0,1,0,0,0
"713","A1CY01G7686ORZ","english",35,"female","low","low_yoga",25895,"1","0","0",0,"Studios F and E.","Studio A.","Studios F, E, D, C and B.","ms-h","f","exh",1,0,0,1,0,1,1,0,0,0,1,0,0,0
"714","A1CY01G7686ORZ","english",35,"female","high","high_fbi",16297,"0","1","1",0,"Place E.","Place F.","Places F and A.","mo-l","mo-h","ms-h",0,1,1,1,0,0,1,0,1,0,1,0,0,0
"715","A1CY01G7686ORZ","english",35,"female","low","low_la",25327,"0","1","0",0,"Diner E.","Diner C.","Diners A and E.","mo-l","mo-h","ms-l",0,1,1,0,1,0,1,0,1,0,0,0,0,0
"717","A1CY01G7686ORZ","english",35,"female","high","high_terrorism",12311,"1","1","0",0,"Store E.","Stores E and B.","Stores A and F.","mo-h","ms-h","ms-l",0,1,0,1,1,0,1,0,1,0,1,0,0,0
"718","A1CY01G7686ORZ","english",35,"female","low","low_pic",32030,"0","0","1",0,"Locations A, D, E, and F.","Location B.","Locations A and D.","exh","f","ms-h",1,0,0,1,0,1,1,0,0,0,1,0,0,0
"724","A2QKM3JUFWBSMO","English",63,"male","high","high_inspector",175692,"0","0","1",0,"Restaurant E.","Restaurant A.","Restaurants A and B.","mo-l","mo-h","ms-h",0,1,1,1,0,0,1,0,0,0,1,0,0,0
"725","A2QKM3JUFWBSMO","English",63,"male","low","low_coffee",56818,"1","0","0",0,"Cafe E.","Cafes F and D.","Cafe D.","mo-h","ms-l","mo-l",0,1,1,0,1,0,1,0,1,0,0,0,0,0
"727","A2QKM3JUFWBSMO","English",63,"male","high","high_fbi",46617,"0","1","0",0,"Places F, A, B, C and E.","Places F and A.","Place F.","exh","ms-h","mo-h",1,1,0,1,0,0,1,0,0,0,1,0,0,0
"728","A2QKM3JUFWBSMO","English",63,"male","low","low_pic",32425,"1","0","0",0,"Location A.","Location F.","Location B.","mo-h","mo-l","f",0,1,1,0,0,1,1,0,1,0,0,0,0,0
"730","A2QKM3JUFWBSMO","English",63,"male","high","high_operative",49809,"1","0","0",0,"The Northeast district.","The West district.","The North district.","mo-h","f","mo-l",0,1,1,0,0,1,1,0,1,0,0,0,0,0
"731","A2QKM3JUFWBSMO","English",63,"male","low","low_yoga",27165,"0","1","0",0,"Studios C and B.","Studio F.","Studios F and E.","ms-l","mo-h","ms-h",0,1,0,1,1,0,1,0,1,0,0,0,0,0
"732","A2QKM3JUFWBSMO","English",63,"male","high","high_firefighter",34513,"1","0","0",0,"The fifth and second floors.","The first floor.","The fourth and sixth floors.","ms-h","f","ms-l",0,0,0,1,1,1,1,0,0,0,1,0,0,0
"734","A2QKM3JUFWBSMO","English",63,"male","low","low_brother",25803,"0","0","1",0,"Stall B.","Stalls C and D.","Stalls A and B.","mo-l","ms-h","ms-l",0,0,1,1,1,0,1,0,0,0,0,1,0,0
"735","A2QKM3JUFWBSMO","English",63,"male","high","high_terrorism",39884,"0","1","0",0,"Store E.","Stores E and B.","Store F.","mo-h","ms-h","mo-l",0,1,1,1,0,0,1,0,0,0,1,0,0,0
"736","A2QKM3JUFWBSMO","English",63,"male","low","low_la",27747,"0","0","0",1,"Diner E.","Diner B.","Diners A and E.","mo-l","f","ms-l",0,0,1,0,1,1,1,0,0,0,0,0,0,1
"742","A7SXWHGK8B40R","English",24,"male","high","high_fbi",23550,"0","0","1",0,"Place F.","Places F and A.","Places F, A, B, C and E.","mo-h","ms-h","exh",1,1,0,1,0,0,1,1,0,0,0,0,0,0
"743","A7SXWHGK8B40R","English",24,"male","low","low_la",20902,"0","0","1",0,"Diners C and F.","Diner C.","Diners C, F, A, D, and E.","ms-h","mo-h","exh",1,1,0,1,0,0,1,1,0,0,0,0,0,0
"745","A7SXWHGK8B40R","English",24,"male","high","high_firefighter",24029,"1","0","0",0,"The fourth and sixth floors.","The sixth floor.","The first floor.","ms-l","mo-l","f",0,0,1,0,1,1,1,0,0,0,0,1,0,0
"746","A7SXWHGK8B40R","English",24,"male","low","low_yoga",10315,"1","0","0",0,"Studios F, E, D, C and B.","Studio F.","Studios C and B.","exh","mo-h","ms-l",1,1,0,0,1,0,1,1,0,0,0,0,0,0
"748","A7SXWHGK8B40R","English",24,"male","high","high_terrorism",9008,"0","1","0",0,"Stores A and F.","Stores E and B.","Store F.","ms-l","ms-h","mo-l",0,0,1,1,1,0,1,0,0,0,1,0,0,0
"749","A7SXWHGK8B40R","English",24,"male","low","low_brother",10608,"0","1","0",0,"Stall C.","Stalls C, D, A, F and B.","Stalls C and D.","mo-h","exh","ms-h",1,1,0,1,0,0,1,1,0,0,0,0,0,0
"750","A7SXWHGK8B40R","English",24,"male","high","high_inspector",17345,"0","0","1",0,"Restaurants C and E.","Restaurant E.","Restaurants A and B.","ms-l","mo-l","ms-h",0,0,1,1,1,0,1,0,0,0,1,0,0,0
"752","A7SXWHGK8B40R","English",24,"male","low","low_coffee",6255,"0","0","1",0,"Cafe D.","Cafes F and D.","Cafes E, B, F, C and D.","mo-l","ms-l","exh",1,0,1,0,1,0,1,1,0,0,0,0,0,0
"753","A7SXWHGK8B40R","English",24,"male","high","high_operative",26058,"1","0","0",0,"The Northeast, Southwest, South, Southeast and North districts.","The Northeast and Southwest districts.","The Northeast district.","exh","ms-h","mo-h",1,1,0,1,0,0,1,1,0,0,0,0,0,0
"754","A7SXWHGK8B40R","English",24,"male","low","low_pic",16030,"0","1","0",0,"Location F.","Location A.","Locations D and F.","mo-l","mo-h","ms-l",0,1,1,0,1,0,1,0,1,0,0,0,0,0
"760","A230GPTWWF3SE7","English",26,"female","low","low_pic",10570,"0","1","0",0,"Location F.","Locations A, D, E, and F.","Location A.","mo-l","exh","mo-h",1,1,1,0,0,0,1,1,0,0,0,0,0,0
"761","A230GPTWWF3SE7","English",26,"female","high","high_firefighter",16204,"0","1","0",0,"The fifth floor.","The fifth, second, fourth, third and sixth floors.","The first floor.","mo-h","exh","f",1,1,0,0,0,1,1,1,0,0,0,0,0,0
"763","A230GPTWWF3SE7","English",26,"female","low","low_yoga",19114,"1","0","0",0,"Studios F and E.","Studios C and B.","Studio B.","ms-h","ms-l","mo-l",0,0,1,1,1,0,1,0,0,0,1,0,0,0
"764","A230GPTWWF3SE7","English",26,"female","high","high_inspector",12411,"0","0","1",0,"Restaurant A.","Restaurants C and E.","Restaurants A and B.","mo-h","ms-l","ms-h",0,1,0,1,1,0,1,0,0,0,1,0,0,0
"766","A230GPTWWF3SE7","English",26,"female","low","low_brother",6017,"1","0","0",0,"Stalls C and D.","Stall E.","Stall C.","ms-h","f","mo-h",0,1,0,1,0,1,1,0,0,0,1,0,0,0
"767","A230GPTWWF3SE7","English",26,"female","high","high_fbi",18733,"0","1","0",0,"Place F.","Places B and E.","Place D.","mo-h","ms-l","f",0,1,0,0,1,1,1,0,0,0,0,1,0,0
"768","A230GPTWWF3SE7","English",26,"female","low","low_la",3296,"0","1","0",0,"Diner C.","Diners A and E.","Diners C and F.","mo-h","ms-l","ms-h",0,1,0,1,1,0,1,0,0,0,0,1,0,0
"770","A230GPTWWF3SE7","English",26,"female","high","high_operative",30439,"0","0","1",0,"The Northeast and Southwest districts.","The South and North districts.","The North district.","ms-h","ms-l","mo-l",0,0,1,1,1,0,1,0,0,1,0,0,0,0
"771","A230GPTWWF3SE7","English",26,"female","low","low_coffee",3880,"0","0","1",0,"Cafe A.","Cafe D.","Cafes E, B, F, C and D.","f","mo-l","exh",1,0,1,0,0,1,1,1,0,0,0,0,0,0
"772","A230GPTWWF3SE7","English",26,"female","high","high_terrorism",5894,"0","1","0",0,"Stores E and B.","Stores E, B, A, D, and F.","Store F.","ms-h","exh","mo-l",1,0,1,1,0,0,1,1,0,0,0,0,0,0
"778","A2RMJNF6IPI42F","english",33,"female","low","low_brother",20259,"0","1","0",0,"Stalls A and B.","Stall C.","Stall B.","ms-l","mo-h","mo-l",0,1,1,0,1,0,1,0,1,0,0,0,0,0
"779","A2RMJNF6IPI42F","english",33,"female","high","high_firefighter",15738,"0","0","1",0,"The fourth and sixth floors.","The first floor.","The fifth and second floors.","ms-l","f","ms-h",0,0,0,1,1,1,1,0,0,0,1,0,0,0
"781","A2RMJNF6IPI42F","english",33,"female","low","low_yoga",12419,"1","1","0",0,"Studios F and E.","Studio F.","Studio A.","ms-h","mo-h","f",0,1,0,1,0,1,1,0,1,0,1,0,0,0
"782","A2RMJNF6IPI42F","english",33,"female","high","high_inspector",11086,"1","1","0",0,"Restaurant A.","Restaurants A and B.","Restaurants C and E.","mo-h","ms-h","ms-l",0,1,0,1,1,0,1,0,1,0,1,0,0,0
"784","A2RMJNF6IPI42F","english",33,"female","low","low_coffee",8023,"0","1","0",0,"Cafes E, B, F, C and D.","Cafes E and B.","Cafe D.","exh","ms-h","mo-l",1,0,1,1,0,0,1,0,0,0,1,0,0,0
"785","A2RMJNF6IPI42F","english",33,"female","high","high_terrorism",6886,"0","1","0",0,"Stores A and F.","Stores E and B.","Store F.","ms-l","ms-h","mo-l",0,0,1,1,1,0,1,0,0,0,1,0,0,0
"786","A2RMJNF6IPI42F","english",33,"female","low","low_pic",9022,"0","0","0",1,"Locations D and F.","Location A.","Location B.","ms-l","mo-h","f",0,1,0,0,1,1,1,0,0,0,0,0,0,1
"788","A2RMJNF6IPI42F","english",33,"female","high","high_operative",9671,"0","0","0",1,"The Northeast district.","The North district.","The West district.","mo-h","mo-l","f",0,1,1,0,0,1,1,0,0,0,0,0,0,1
"789","A2RMJNF6IPI42F","english",33,"female","low","low_la",8462,"0","1","1",0,"Diner E.","Diner C.","Diners C and F.","mo-l","mo-h","ms-h",0,1,1,1,0,0,1,0,1,0,1,0,0,0
"790","A2RMJNF6IPI42F","english",33,"female","high","high_fbi",7244,"0","1","0",0,"Places F and A.","Place F.","Places B and E.","ms-h","mo-h","ms-l",0,1,0,1,1,0,1,0,1,0,0,0,0,0
"796","A2GTL8ODM5JYA2","English",40,"female","high","high_inspector",86042,"1","0","0",0,"Restaurants A and B.","Restaurants C and E.","Restaurant E.","ms-h","ms-l","mo-l",0,0,1,1,1,0,1,0,0,0,1,0,0,0
"797","A2GTL8ODM5JYA2","English",40,"female","low","low_coffee",38710,"1","0","0",0,"Cafes E and B.","Cafe D.","Cafes F and D.","ms-h","mo-l","ms-l",0,0,1,1,1,0,1,0,0,0,1,0,0,0
"799","A2GTL8ODM5JYA2","English",40,"female","high","high_firefighter",48648,"1","1","1",0,"The fifth floor.","The fourth and sixth floors.","The fifth and second floors.","mo-h","ms-l","ms-h",0,1,0,1,1,0,1,0,1,0,1,1,0,0
"800","A2GTL8ODM5JYA2","English",40,"female","low","low_brother",38994,"0","0","0",1,"Stalls A and B.","Stall C.","Stall B.","ms-l","mo-h","mo-l",0,1,1,0,1,0,1,0,0,0,0,0,0,1
"802","A2GTL8ODM5JYA2","English",40,"female","high","high_operative",69284,"0","1","0",0,"The Northeast and Southwest districts.","The South and North districts.","The West district.","ms-h","ms-l","f",0,0,0,1,1,1,1,0,0,0,0,1,0,0
"803","A2GTL8ODM5JYA2","English",40,"female","low","low_yoga",24784,"0","1","1",0,"Studio B.","Studio F.","Studios F and E.","mo-l","mo-h","ms-h",0,1,1,1,0,0,1,0,1,0,1,0,0,0
"804","A2GTL8ODM5JYA2","English",40,"female","high","high_terrorism",31509,"0","1","0",0,"Store F.","Stores E and B.","Stores A and F.","mo-l","ms-h","ms-l",0,0,1,1,1,0,1,0,0,0,1,0,0,0
"806","A2GTL8ODM5JYA2","English",40,"female","low","low_la",27362,"1","1","0",0,"Diner C.","Diners C and F.","Diner E.","mo-h","ms-h","mo-l",0,1,1,1,0,0,1,0,1,0,1,0,0,0
"807","A2GTL8ODM5JYA2","English",40,"female","high","high_fbi",20951,"1","0","0",0,"Place F.","Place E.","Place D.","mo-h","mo-l","f",0,1,1,0,0,1,1,0,1,0,0,0,0,0
"808","A2GTL8ODM5JYA2","English",40,"female","low","low_pic",28048,"0","0","1",0,"Location F.","Locations D and F.","Locations A and D.","mo-l","ms-l","ms-h",0,0,1,1,1,0,1,0,0,0,1,0,0,0
"814","A1GKD3NG1NNHRP","ENG",58,"female","low","low_yoga",119932,"1","0","1",0,"Studio F.","Studio B.","Studios F, E, D, C and B.","mo-h","mo-l","exh",1,1,1,0,0,0,1,1,1,0,0,0,0,0
"815","A1GKD3NG1NNHRP","ENG",58,"female","high","high_terrorism",78519,"1","1","0",0,"Store E.","Stores E, B, A, D, and F.","Stores A and F.","mo-h","exh","ms-l",1,1,0,0,1,0,1,1,1,0,0,0,0,0
"817","A1GKD3NG1NNHRP","ENG",58,"female","low","low_brother",114252,"1","0","0",0,"Stalls C and D.","Stall C.","Stall B.","ms-h","mo-h","mo-l",0,1,1,1,0,0,1,0,0,0,1,0,0,0
"818","A1GKD3NG1NNHRP","ENG",58,"female","high","high_fbi",49143,"0","1","0",0,"Places B and E.","Places F, A, B, C and E.","Place E.","ms-l","exh","mo-l",1,0,1,0,1,0,1,1,0,0,0,0,0,0
"820","A1GKD3NG1NNHRP","ENG",58,"female","low","low_pic",48720,"0","1","0",1,"Location F.","Locations A and D.","Locations D and F.","mo-l","ms-h","ms-l",0,0,1,1,1,0,1,0,0,0,1,0,0,1
"821","A1GKD3NG1NNHRP","ENG",58,"female","high","high_firefighter",8595,"0","0","1",0,"The sixth floor.","The fourth and sixth floors.","The fifth floor.","mo-l","ms-l","mo-h",0,1,1,0,1,0,1,0,1,0,0,0,0,0
"822","A1GKD3NG1NNHRP","ENG",58,"female","low","low_coffee",4336,"1","0","0",0,"Cafe D.","Cafe E.","Cafes E and B.","mo-l","mo-h","ms-h",0,1,1,1,0,0,1,0,0,1,0,0,0,0
"824","A1GKD3NG1NNHRP","ENG",58,"female","high","high_inspector",4175,"0","0","1",0,"Restaurants A and B.","Restaurants C and E.","Restaurant E.","ms-h","ms-l","mo-l",0,0,1,1,1,0,1,0,0,1,0,0,0,0
"825","A1GKD3NG1NNHRP","ENG",58,"female","low","low_la",5014,"0","0","1",0,"Diners C, F, A, D, and E.","Diners A and E.","Diners C and F.","exh","ms-l","ms-h",1,0,0,1,1,0,1,0,0,0,1,0,0,0
"826","A1GKD3NG1NNHRP","ENG",58,"female","high","high_operative",4619,"0","0","1",0,"The Northeast and Southwest districts.","The South and North districts.","The West district.","ms-h","ms-l","f",0,0,0,1,1,1,1,0,0,0,0,0,1,0
"832","A3JLE2LJ5I17E2","english",28,"male","low","low_la",6557,"0","0","0",1,"Diner E.","Diners C and F.","Diners C, F, A, D, and E.","mo-l","ms-h","exh",1,0,1,1,0,0,1,0,0,0,0,0,0,1
"833","A3JLE2LJ5I17E2","english",28,"male","high","high_inspector",1432,"0","0","1",0,"Restaurant F.","Restaurants A and B.","Restaurant E.","f","ms-h","mo-l",0,0,1,1,0,1,1,0,0,1,0,0,0,0
"835","A3JLE2LJ5I17E2","english",28,"male","low","low_brother",2755,"0","1","0",0,"Stall C.","Stalls C and D.","Stalls C, D, A, F and B.","mo-h","ms-h","exh",1,1,0,1,0,0,1,0,0,0,1,0,0,0
"836","A3JLE2LJ5I17E2","english",28,"male","high","high_fbi",2111,"0","1","0",0,"Places F and A.","Places F, A, B, C and E.","Place E.","ms-h","exh","mo-l",1,0,1,1,0,0,1,1,0,0,0,0,0,0
"838","A3JLE2LJ5I17E2","english",28,"male","low","low_yoga",1674,"0","1","0",0,"Studio B.","Studio F.","Studios F, E, D, C and B.","mo-l","mo-h","exh",1,1,1,0,0,0,1,0,1,0,0,0,0,0
"839","A3JLE2LJ5I17E2","english",28,"male","high","high_terrorism",1594,"0","1","0",0,"Store C.","Store E.","Stores E, B, A, D, and F.","f","mo-h","exh",1,1,0,0,0,1,1,0,1,0,0,0,0,0
"840","A3JLE2LJ5I17E2","english",28,"male","low","low_pic",1206,"0","1","0",0,"Locations A, D, E, and F.","Locations D and F.","Location F.","exh","ms-l","mo-l",1,0,1,0,1,0,1,0,0,0,0,1,0,0
"842","A3JLE2LJ5I17E2","english",28,"male","high","high_operative",1345,"0","1","0",0,"The Northeast and Southwest districts.","The North district.","The West district.","ms-h","mo-l","f",0,0,1,1,0,1,1,0,0,1,0,0,0,0
"843","A3JLE2LJ5I17E2","english",28,"male","low","low_coffee",2368,"0","1","0",0,"Cafes F and D.","Cafes E, B, F, C and D.","Cafes E and B.","ms-l","exh","ms-h",1,0,0,1,1,0,1,1,0,0,0,0,0,0
"844","A3JLE2LJ5I17E2","english",28,"male","high","high_firefighter",2230,"0","1","0",0,"The fourth and sixth floors.","The first floor.","The sixth floor.","ms-l","f","mo-l",0,0,1,0,1,1,1,0,0,0,0,0,1,0
"850","A39A8K2UX0U05W","ENGLISH",36,"male","low","low_yoga",43978,"1","1","1",0,"Studios C and B.","Studio F.","Studios F, E, D, C and B.","ms-l","mo-h","exh",1,1,0,0,1,0,1,1,1,0,0,1,0,0
"851","A39A8K2UX0U05W","ENGLISH",36,"male","high","high_operative",62060,"0","1","0",0,"The North district.","The Northeast and Southwest districts.","The Northeast district.","mo-l","ms-h","mo-h",0,1,1,1,0,0,1,0,0,0,1,0,0,0
"853","A39A8K2UX0U05W","ENGLISH",36,"male","low","low_brother",10183,"1","0","0",0,"Stalls C and D.","Stall C.","Stall E.","ms-h","mo-h","f",0,1,0,1,0,1,1,0,0,0,1,0,0,0
"854","A39A8K2UX0U05W","ENGLISH",36,"male","high","high_fbi",22921,"0","0","1",0,"Place E.","Places B and E.","Place F.","mo-l","ms-l","mo-h",0,1,1,0,1,0,1,0,1,0,0,0,0,0
"856","A39A8K2UX0U05W","ENGLISH",36,"male","low","low_la",7221,"0","0","1",0,"Diner B.","Diners A and E.","Diners C and F.","f","ms-l","ms-h",0,0,0,1,1,1,1,0,0,0,1,0,0,0
"857","A39A8K2UX0U05W","ENGLISH",36,"male","high","high_firefighter",6126,"0","0","1",0,"The fourth and sixth floors.","The first floor.","The fifth and second floors.","ms-l","f","ms-h",0,0,0,1,1,1,1,0,0,0,1,0,0,0
"858","A39A8K2UX0U05W","ENGLISH",36,"male","low","low_coffee",8013,"0","1","0",0,"Cafe E.","Cafes E and B.","Cafes F and D.","mo-h","ms-h","ms-l",0,1,0,1,1,0,1,0,0,0,1,0,0,0
"860","A39A8K2UX0U05W","ENGLISH",36,"male","high","high_inspector",21568,"1","0","0",0,"Restaurants A, B, C, D, and E.","Restaurant F.","Restaurant E.","exh","f","mo-l",1,0,1,0,0,1,1,1,0,0,0,0,0,0
"861","A39A8K2UX0U05W","ENGLISH",36,"male","low","low_pic",23313,"0","1","0",0,"Location B.","Location A.","Locations A, D, E, and F.","f","mo-h","exh",1,1,0,0,0,1,1,0,1,0,0,0,0,0
"862","A39A8K2UX0U05W","ENGLISH",36,"male","high","high_terrorism",3846,"0","1","0",0,"Store C.","Store E.","Stores E, B, A, D, and F.","f","mo-h","exh",1,1,0,0,0,1,1,0,1,0,0,0,0,0
"868","AN098C29EGJ6","English",28,"female","low","low_yoga",32825,"0","0","0",1,"Studio A.","Studio B.","Studios C and B.","f","mo-l","ms-l",0,0,1,0,1,1,1,0,0,0,0,0,0,1
"869","AN098C29EGJ6","English",28,"female","high","high_firefighter",43670,"1","1","1",0,"The fifth floor.","The sixth floor.","The fifth and second floors.","mo-h","mo-l","ms-h",0,1,1,1,0,0,1,0,1,1,1,0,0,0
"870","AN098C29EGJ6","English",28,"female","low","low_brother",57821,"1","0","0",0,"Stall C.","Stalls C, D, A, F and B.","Stalls A and B.","mo-h","exh","ms-l",1,1,0,0,1,0,1,0,1,0,0,0,0,0
"872","AN098C29EGJ6","English",28,"female","high","high_fbi",86107,"0","1","0",0,"Places F, A, B, C and E.","Places F and A.","Place D.","exh","ms-h","f",1,0,0,1,0,1,1,0,0,0,1,0,0,0
"873","AN098C29EGJ6","English",28,"female","low","low_la",47680,"0","1","0",0,"Diner B.","Diner C.","Diner E.","f","mo-h","mo-l",0,1,1,0,0,1,1,0,1,0,0,0,0,0
"875","AN098C29EGJ6","English",28,"female","high","high_terrorism",22153,"0","0","0",1,"Store F.","Store C.","Stores A and F.","mo-l","f","ms-l",0,0,1,0,1,1,1,0,0,0,0,0,0,1
"876","AN098C29EGJ6","English",28,"female","low","low_coffee",17488,"0","0","0",1,"Cafes F and D.","Cafes E, B, F, C and D.","Cafe D.","ms-l","exh","mo-l",1,0,1,0,1,0,1,0,0,0,0,0,0,1
"877","AN098C29EGJ6","English",28,"female","high","high_operative",31834,"1","0","0",0,"The Northeast and Southwest districts.","The North district.","The Northeast district.","ms-h","mo-l","mo-h",0,1,1,1,0,0,1,0,0,0,1,0,0,0
"879","AN098C29EGJ6","English",28,"female","low","low_pic",104137,"0","0","1",0,"Location F.","Locations D and F.","Locations A and D.","mo-l","ms-l","ms-h",0,0,1,1,1,0,1,0,0,0,1,0,0,0
"880","AN098C29EGJ6","English",28,"female","high","high_inspector",12871,"0","0","1",0,"Restaurant E.","Restaurants C and E.","Restaurants A, B, C, D, and E.","mo-l","ms-l","exh",1,0,1,0,1,0,1,1,0,0,0,0,0,0
"886","A3OB6REG5CGHK1","English",56,"male","low","low_coffee",48728,"1","0","1",0,"Cafes E and B.","Cafe D.","Cafe E.","ms-h","mo-l","mo-h",0,1,1,1,0,0,1,0,1,0,1,0,0,0
"887","A3OB6REG5CGHK1","English",56,"male","high","high_firefighter",32046,"0","0","1",0,"The sixth floor.","The fourth and sixth floors.","The fifth and second floors.","mo-l","ms-l","ms-h",0,0,1,1,1,0,1,0,0,0,1,0,0,0
"889","A3OB6REG5CGHK1","English",56,"male","low","low_la",23039,"0","1","1",0,"Diners A and E.","Diner C.","Diners C and F.","ms-l","mo-h","ms-h",0,1,0,1,1,0,1,0,1,0,1,0,0,0
"890","A3OB6REG5CGHK1","English",56,"male","high","high_inspector",31251,"0","1","0",0,"Restaurants A and B.","Restaurants A, B, C, D, and E.","Restaurant F.","ms-h","exh","f",1,0,0,1,0,1,1,1,0,0,0,0,0,0
"892","A3OB6REG5CGHK1","English",56,"male","low","low_yoga",13622,"0","1","0",0,"Studios C and B.","Studios F and E.","Studio B.","ms-l","ms-h","mo-l",0,0,1,1,1,0,1,0,0,0,1,0,0,0
"893","A3OB6REG5CGHK1","English",56,"male","high","high_terrorism",58647,"1","1","0",0,"Stores E and B.","Store E.","Stores A and F.","ms-h","mo-h","ms-l",0,1,0,1,1,0,1,0,1,0,1,0,0,0
"894","A3OB6REG5CGHK1","English",56,"male","low","low_pic",24033,"1","0","0",0,"Locations A, D, E, and F.","Location B.","Location F.","exh","f","mo-l",1,0,1,0,0,1,1,1,0,0,0,0,0,0
"896","A3OB6REG5CGHK1","English",56,"male","high","high_fbi",15549,"0","1","1",0,"Place D.","Places F and A.","Place F.","f","ms-h","mo-h",0,1,0,1,0,1,1,0,1,0,1,0,0,0
"897","A3OB6REG5CGHK1","English",56,"male","low","low_brother",26242,"0","0","1",0,"Stalls A and B.","Stall E.","Stall C.","ms-l","f","mo-h",0,1,0,0,1,1,1,0,1,0,0,0,0,0
"898","A3OB6REG5CGHK1","English",56,"male","high","high_operative",31496,"1","0","0",0,"The Northeast district.","The North district.","The South and North districts.","mo-h","mo-l","ms-l",0,1,1,0,1,0,1,0,1,0,0,0,0,0
"904","A3HTLXAPOBCVVO","English",48,"female","high","high_operative",94628,"1","1","0",0,"The Northeast and Southwest districts.","The South and North districts.","The North district.","ms-h","ms-l","mo-l",0,0,1,1,1,0,1,0,0,0,1,1,0,0
"905","A3HTLXAPOBCVVO","English",48,"female","low","low_coffee",26585,"0","0","1",0,"Cafes F and D.","Cafe E.","Cafe D.","ms-l","mo-h","mo-l",0,1,1,0,1,0,1,0,0,1,0,0,0,0
"906","A3HTLXAPOBCVVO","English",48,"female","high","high_firefighter",41885,"1","0","0",0,"The fifth, second, fourth, third and sixth floors.","The fifth floor.","The fifth and second floors.","exh","mo-h","ms-h",1,1,0,1,0,0,1,1,0,0,0,0,0,0
"908","A3HTLXAPOBCVVO","English",48,"female","low","low_pic",34780,"0","0","0",1,"Locations D and F.","Location B.","Location F.","ms-l","f","mo-l",0,0,1,0,1,1,1,0,0,0,0,0,0,1
"909","A3HTLXAPOBCVVO","English",48,"female","high","high_fbi",25545,"1","0","0",0,"Place F.","Place E.","Places B and E.","mo-h","mo-l","ms-l",0,1,1,0,1,0,1,0,1,0,0,0,0,0
"911","A3HTLXAPOBCVVO","English",48,"female","low","low_la",211918,"1","1","0",0,"Diners C, F, A, D, and E.","Diner C.","Diner B.","exh","mo-h","f",1,1,0,0,0,1,1,1,1,0,0,0,0,0
"912","A3HTLXAPOBCVVO","English",48,"female","high","high_inspector",26036,"0","0","0",1,"Restaurant E.","Restaurants C and E.","Restaurant F.","mo-l","ms-l","f",0,0,1,0,1,1,1,0,0,0,0,0,0,1
"913","A3HTLXAPOBCVVO","English",48,"female","low","low_brother",41694,"1","1","1",0,"Stall C.","Stalls C, D, A, F and B.","Stalls C and D.","mo-h","exh","ms-h",1,1,0,1,0,0,1,1,1,0,1,0,0,0
"915","A3HTLXAPOBCVVO","English",48,"female","high","high_terrorism",155830,"0","0","0",1,"Store C.","Store F.","Stores E, B, A, D, and F.","f","mo-l","exh",1,0,1,0,0,1,1,0,0,0,0,0,0,1
"916","A3HTLXAPOBCVVO","English",48,"female","low","low_yoga",18648,"1","0","1",0,"Studios F and E.","Studio B.","Studio F.","ms-h","mo-l","mo-h",0,1,1,1,0,0,1,0,1,0,1,0,0,0
"922","ABL3H3O3BI8ZD","English",24,"female","high","high_operative",19182,"0","1","0",0,"The West district.","The Northeast and Southwest districts.","The Northeast, Southwest, South, Southeast and North districts.","f","ms-h","exh",1,0,0,1,0,1,1,0,0,0,1,0,0,0
"923","ABL3H3O3BI8ZD","English",24,"female","low","low_coffee",2412,"0","1","1",0,"Cafe E.","Cafe D.","Cafe A.","mo-h","mo-l","f",0,1,1,0,0,1,1,0,0,1,0,0,1,0
"925","ABL3H3O3BI8ZD","English",24,"female","high","high_fbi",2214,"0","1","0",0,"Places B and E.","Place F.","Place D.","ms-l","mo-h","f",0,1,0,0,1,1,1,0,1,0,0,0,0,0
"926","ABL3H3O3BI8ZD","English",24,"female","low","low_yoga",3414,"0","1","1",0,"Studio F.","Studio A.","Studio B.","mo-h","f","mo-l",0,1,1,0,0,1,1,0,0,1,0,0,1,0
"928","ABL3H3O3BI8ZD","English",24,"female","high","high_terrorism",2438,"0","1","1",0,"Stores E and B.","Stores A and F.","Stores E, B, A, D, and F.","ms-h","ms-l","exh",1,0,0,1,1,0,1,1,0,0,0,1,0,0
"929","ABL3H3O3BI8ZD","English",24,"female","low","low_la",4382,"1","1","0",0,"Diners A and E.","Diner E.","Diners C and F.","ms-l","mo-l","ms-h",0,0,1,1,1,0,1,0,0,1,0,1,0,0
"930","ABL3H3O3BI8ZD","English",24,"female","high","high_inspector",2421,"0","1","1",0,"Restaurants C and E.","Restaurant E.","Restaurants A and B.","ms-l","mo-l","ms-h",0,0,1,1,1,0,1,0,0,1,1,0,0,0
"932","ABL3H3O3BI8ZD","English",24,"female","low","low_brother",1987,"0","1","0",0,"Stall C.","Stall B.","Stalls C and D.","mo-h","mo-l","ms-h",0,1,1,1,0,0,1,0,0,1,0,0,0,0
"933","ABL3H3O3BI8ZD","English",24,"female","high","high_firefighter",3244,"0","1","1",0,"The fifth and second floors.","The sixth floor.","The fourth and sixth floors.","ms-h","mo-l","ms-l",0,0,1,1,1,0,1,0,0,1,0,1,0,0
"934","ABL3H3O3BI8ZD","English",24,"female","low","low_pic",1761,"0","1","1",0,"Locations A, D, E, and F.","Location B.","Locations D and F.","exh","f","ms-l",1,0,0,0,1,1,1,0,0,0,0,1,1,0
"940","A3SHLGG66PJXEB","English",30,"female","low","low_yoga",40154,"1","1","1",0,"Studio B.","Studio F.","Studios F and E.","mo-l","mo-h","ms-h",0,1,1,1,0,0,1,0,1,1,1,0,0,0
"941","A3SHLGG66PJXEB","English",30,"female","high","high_firefighter",50410,"1","1","1",0,"The fifth, second, fourth, third and sixth floors.","The fifth and second floors.","The sixth floor.","exh","ms-h","mo-l",1,0,1,1,0,0,1,1,0,1,1,0,0,0
"943","A3SHLGG66PJXEB","English",30,"female","low","low_brother",31992,"1","0","1",0,"Stall B.","Stall E.","Stall C.","mo-l","f","mo-h",0,1,1,0,0,1,1,0,1,1,0,0,0,0
"944","A3SHLGG66PJXEB","English",30,"female","high","high_inspector",67357,"1","1","1",0,"Restaurant E.","Restaurant A.","Restaurants C and E.","mo-l","mo-h","ms-l",0,1,1,0,1,0,1,0,1,1,0,1,0,0
