subject,native_lang,age,gender,trial,story,reaction_time,response_a,response_b,response_c,response_d,report_a,report_b,report_c,tag_a,tag_b,tag_c,exhaustive_seen,mention_one_high_seen,mention_one_low_seen,mention_some_high_seen,mention_some_low_seen,false_report_seen,none_of_above_seen,exhaustive_chosen,mention_one_high_chosen,mention_one_low_chosen,mention_some_high_chosen,mention_some_low_chosen,false_report_chosen,none_of_above_chosen
A2MM10557W7PLD,english,35,male,consent,NA,20046,NA,NA,NA,NA,NA,NA,NA,NA,NA,NA,NA,NA,NA,NA,NA,NA,NA,NA,NA,NA,NA,NA,NA,NA
A2MM10557W7PLD,english,35,male,train,train_f,21653,0,0,0,1,NA,NA,NA,NA,NA,NA,NA,NA,NA,NA,NA,NA,NA,NA,NA,NA,NA,NA,NA,NA
A2MM10557W7PLD,english,35,male,train,train_m,10681,0,0,1,0,NA,NA,NA,NA,NA,NA,NA,NA,NA,NA,NA,NA,NA,NA,NA,NA,NA,NA,NA,NA
A2MM10557W7PLD,english,35,male,test,test_coffee,8449,0,0,1,0,Cafes D and E.,Cafes A and B.,Cafe E.,ms-l,ms-h,mo-l,0,0,1,1,1,0,1,0,0,1,0,0,0,0
A2MM10557W7PLD,english,35,male,test,test_yarn,18900,0,1,0,0,Stall E.,Stalls A and B.,Stalls D and E.,mo-l,ms-h,ms-l,0,0,1,1,1,0,1,0,0,0,1,0,0,0
A2MM10557W7PLD,english,35,male,control,control_how,4935,0,1,0,0,NA,NA,NA,NA,NA,NA,NA,0,1,1,1,0,1,0,0,0,1,0,0,0
A2MM10557W7PLD,english,35,male,test,test_books,3910,0,0,1,0,Bookstore F.,Bookstore E.,"Bookstores A, B, C, D and E.",fa,mo-l,exh,1,0,1,0,0,0,1,1,0,0,0,0,0,0
A2MM10557W7PLD,english,35,male,test,test_hair,2766,0,1,0,0,Stylist A.,Stylists D and E.,Stylist E.,mo-h,ms-l,mo-l,0,1,1,0,1,0,1,0,0,0,0,1,0,0
A2MM10557W7PLD,english,35,male,control,control_why,3615,0,0,1,0,NA,NA,NA,NA,NA,NA,NA,1,1,0,1,0,1,0,0,0,0,1,0,0
A2MM10557W7PLD,english,35,male,test,test_shoes,4791,1,0,0,0,Store A.,Store E.,Stores A and B.,mo-h,mo-l,ms-h,0,1,1,1,0,0,1,0,1,0,0,0,0,0
A2MM10557W7PLD,english,35,male,control,control_when,3895,0,0,1,0,NA,NA,NA,NA,NA,NA,NA,1,1,1,0,0,1,0,1,0,0,0,0,0
A2MM10557W7PLD,english,35,male,test,test_dentist,2823,0,0,1,0,Dentist E.,Dentists A and B.,Dentists D and E.,mo-l,ms-h,ms-l,0,0,1,1,1,0,1,0,0,0,0,1,0,0
A2MM10557W7PLD,english,35,male,control,control_what,2975,0,0,1,0,NA,NA,NA,NA,NA,NA,NA,0,1,1,1,0,1,0,0,0,0,1,0,0
A2MM10557W7PLD,english,35,male,exit_quest,NA,30724,No%2C the answer would be the same,No%2C it was fun,interesting,NA,NA,NA,NA,NA,NA,NA,NA,NA,NA,NA,NA,NA,NA,NA,NA,NA,NA,NA,NA,NA
A3FFZN4FO3Q789,english,30,male,consent,NA,116007,NA,NA,NA,NA,NA,NA,NA,NA,NA,NA,NA,NA,NA,NA,NA,NA,NA,NA,NA,NA,NA,NA,NA,NA
A3FFZN4FO3Q789,english,30,male,train,train_m,7389,1,1,1,0,NA,NA,NA,NA,NA,NA,NA,NA,NA,NA,NA,NA,NA,NA,NA,NA,NA,NA,NA,NA
A3FFZN4FO3Q789,english,30,male,train,train_f,5555,1,1,0,0,NA,NA,NA,NA,NA,NA,NA,NA,NA,NA,NA,NA,NA,NA,NA,NA,NA,NA,NA,NA
A3FFZN4FO3Q789,english,30,male,test,test_coffee,3235,0,1,1,0,Cafe E.,Cafes A and B.,Cafe A.,mo-l,ms-h,mo-h,0,1,1,1,0,0,1,0,1,0,1,0,0,0
A3FFZN4FO3Q789,english,30,male,control,control_when,2135,0,0,1,0,NA,NA,NA,NA,NA,NA,NA,1,1,1,0,0,1,0,1,0,1,0,0,0
A3FFZN4FO3Q789,english,30,male,test,test_yarn,1572,0,1,0,0,Stall F.,Stalls A and B.,Stall E.,fa,ms-h,mo-l,0,0,1,1,0,0,1,0,0,0,1,0,0,0
A3FFZN4FO3Q789,english,30,male,test,test_books,2283,0,0,1,0,Bookstore F.,Bookstores D and E.,Bookstore A.,fa,ms-l,mo-h,0,1,0,0,1,0,1,0,1,0,0,0,0,0
A3FFZN4FO3Q789,english,30,male,control,control_what,2188,0,0,1,0,NA,NA,NA,NA,NA,NA,NA,1,0,0,1,0,1,0,1,0,0,0,0,0
A3FFZN4FO3Q789,english,30,male,test,test_dentist,1746,0,1,0,0,Dentists A and B.,Dentists D and E.,Dentist E.,ms-h,ms-l,mo-l,0,0,1,1,1,0,1,0,0,0,0,1,0,0
A3FFZN4FO3Q789,english,30,male,control,control_why,4364,0,0,1,0,NA,NA,NA,NA,NA,NA,NA,0,1,1,1,0,1,0,0,0,0,1,0,0
A3FFZN4FO3Q789,english,30,male,test,test_shoes,2235,0,1,0,0,Stores A and B.,Store E.,Stores D and E.,ms-h,mo-l,ms-l,0,0,1,1,1,0,1,0,0,1,0,0,0,0
A3FFZN4FO3Q789,english,30,male,test,test_hair,4653,1,0,1,0,Stylists A and B.,Stylist E.,Stylist A.,ms-h,mo-l,mo-h,0,1,1,1,0,0,1,0,1,0,1,0,0,0
A3FFZN4FO3Q789,english,30,male,control,control_how,1836,0,1,0,0,NA,NA,NA,NA,NA,NA,NA,1,1,1,0,0,1,0,1,0,1,0,0,0
A3FFZN4FO3Q789,english,30,male,exit_quest,NA,35049,brunch in town,none,nothing else,NA,NA,NA,NA,NA,NA,NA,NA,NA,NA,NA,NA,NA,NA,NA,NA,NA,NA,NA,NA,NA
A1XGI8153WBWFQ,Albanian,28,male,consent,NA,45536,NA,NA,NA,NA,NA,NA,NA,NA,NA,NA,NA,NA,NA,NA,NA,NA,NA,NA,NA,NA,NA,NA,NA,NA
A1XGI8153WBWFQ,Albanian,28,male,train,train_m,29178,0,0,1,0,NA,NA,NA,NA,NA,NA,NA,NA,NA,NA,NA,NA,NA,NA,NA,NA,NA,NA,NA,NA
A1XGI8153WBWFQ,Albanian,28,male,train,train_f,9034,0,1,0,0,NA,NA,NA,NA,NA,NA,NA,NA,NA,NA,NA,NA,NA,NA,NA,NA,NA,NA,NA,NA
A1XGI8153WBWFQ,Albanian,28,male,test,test_dentist,17918,0,1,0,0,Dentists D and E.,Dentist E.,Dentist F.,ms-l,mo-l,fa,0,0,1,0,1,0,1,0,0,1,0,0,0,0
A1XGI8153WBWFQ,Albanian,28,male,test,test_books,2482,0,1,0,0,Bookstores A and B.,Bookstore E.,Bookstore A.,ms-h,mo-l,mo-h,0,1,1,1,0,0,1,0,0,1,0,0,0,0
A1XGI8153WBWFQ,Albanian,28,male,control,control_why,5128,0,0,1,0,NA,NA,NA,NA,NA,NA,NA,1,1,1,0,0,1,0,0,1,0,0,0,0
A1XGI8153WBWFQ,Albanian,28,male,test,test_yarn,2518,0,1,0,0,"Stalls A, B, C, D and E.",Stalls D and E.,Stall A.,exh,ms-l,mo-h,1,1,0,0,1,0,1,0,0,0,0,1,0,0
A1XGI8153WBWFQ,Albanian,28,male,test,test_hair,2536,0,0,1,0,Stylist E.,Stylist F.,Stylists D and E.,mo-l,fa,ms-l,0,0,1,0,1,0,1,0,0,0,0,1,0,0
A1XGI8153WBWFQ,Albanian,28,male,control,control_what,4576,0,0,1,0,NA,NA,NA,NA,NA,NA,NA,0,1,0,1,0,1,0,0,0,0,1,0,0
A1XGI8153WBWFQ,Albanian,28,male,test,test_shoes,3846,0,1,0,0,Store A.,Stores D and E.,Store E.,mo-h,ms-l,mo-l,0,1,1,0,1,0,1,0,0,0,0,1,0,0
A1XGI8153WBWFQ,Albanian,28,male,control,control_how,2156,0,1,0,0,NA,NA,NA,NA,NA,NA,NA,1,1,0,1,0,1,0,0,0,0,1,0,0
A1XGI8153WBWFQ,Albanian,28,male,test,test_coffee,2582,0,0,1,0,Cafes A and B.,Cafe E.,Cafes D and E.,ms-h,mo-l,ms-l,0,0,1,1,1,0,1,0,0,0,0,1,0,0
A1XGI8153WBWFQ,Albanian,28,male,control,control_when,2276,0,0,1,0,NA,NA,NA,NA,NA,NA,NA,0,1,1,1,0,1,0,0,0,0,1,0,0
A1XGI8153WBWFQ,Albanian,28,male,exit_quest,NA,44370,I would answer exactly the same way because the questions are similar,No%2C the task was easy.,No comment.,NA,NA,NA,NA,NA,NA,NA,NA,NA,NA,NA,NA,NA,NA,NA,NA,NA,NA,NA,NA,NA
A14NSVH4W27CK0,english,28,male,consent,NA,55742,NA,NA,NA,NA,NA,NA,NA,NA,NA,NA,NA,NA,NA,NA,NA,NA,NA,NA,NA,NA,NA,NA,NA,NA
A14NSVH4W27CK0,english,28,male,train,train_m,15274,0,1,0,0,NA,NA,NA,NA,NA,NA,NA,NA,NA,NA,NA,NA,NA,NA,NA,NA,NA,NA,NA,NA
A14NSVH4W27CK0,english,28,male,train,train_f,6292,0,1,0,0,NA,NA,NA,NA,NA,NA,NA,NA,NA,NA,NA,NA,NA,NA,NA,NA,NA,NA,NA,NA
A14NSVH4W27CK0,english,28,male,test,test_coffee,6092,0,0,1,0,Cafe E.,Cafe F.,Cafes A and B.,mo-l,fa,ms-h,0,0,1,1,0,0,1,0,0,0,1,0,0,0
A14NSVH4W27CK0,english,28,male,test,test_shoes,4060,0,0,1,0,Store A.,Stores A and B.,"Stores A, B, C, D and E.",mo-h,ms-h,exh,1,1,0,1,0,0,1,1,0,0,0,0,0,0
A14NSVH4W27CK0,english,28,male,control,control_how,3460,0,0,1,0,NA,NA,NA,NA,NA,NA,NA,1,0,1,0,0,1,1,0,0,0,0,0,0
A14NSVH4W27CK0,english,28,male,test,test_yarn,4448,0,0,1,0,Stall A.,Stall E.,Stalls A and B.,mo-h,mo-l,ms-h,0,1,1,1,0,0,1,0,0,0,1,0,0,0
A14NSVH4W27CK0,english,28,male,test,test_books,4500,0,1,0,0,Bookstore E.,Bookstore F.,Bookstores D and E.,mo-l,fa,ms-l,0,0,1,0,1,0,1,0,0,0,0,0,0,0
A14NSVH4W27CK0,english,28,male,control,control_what,6292,0,1,0,0,NA,NA,NA,NA,NA,NA,NA,0,1,0,1,0,1,0,0,0,0,0,0,0
A14NSVH4W27CK0,english,28,male,test,test_hair,3896,0,0,0,1,Stylist F.,Stylists A and B.,Stylists D and E.,fa,ms-h,ms-l,0,0,0,1,1,0,1,0,0,0,0,0,0,1
A14NSVH4W27CK0,english,28,male,control,control_when,2450,0,1,0,0,NA,NA,NA,NA,NA,NA,NA,0,0,1,1,0,1,0,0,0,0,0,0,1
A14NSVH4W27CK0,english,28,male,test,test_dentist,3294,0,0,1,0,"Dentists A, B, C, D and E.",Dentist F.,Dentist E.,exh,fa,mo-l,1,0,1,0,0,0,1,0,0,1,0,0,0,0
A14NSVH4W27CK0,english,28,male,control,control_why,2278,0,0,0,1,NA,NA,NA,NA,NA,NA,NA,0,1,0,0,0,1,0,0,1,0,0,0,0
A14NSVH4W27CK0,english,28,male,exit_quest,NA,65062,i would tell her to go to the parekway cafe down the street.,no it was just long,,NA,NA,NA,NA,NA,NA,NA,NA,NA,NA,NA,NA,NA,NA,NA,NA,NA,NA,NA,NA,NA
ALDWVFR4I0V2D,English,28,male,consent,NA,17697,NA,NA,NA,NA,NA,NA,NA,NA,NA,NA,NA,NA,NA,NA,NA,NA,NA,NA,NA,NA,NA,NA,NA,NA
ALDWVFR4I0V2D,English,28,male,train,train_m,18924,0,0,1,0,NA,NA,NA,NA,NA,NA,NA,NA,NA,NA,NA,NA,NA,NA,NA,NA,NA,NA,NA,NA
ALDWVFR4I0V2D,English,28,male,train,train_f,18554,0,0,0,1,NA,NA,NA,NA,NA,NA,NA,NA,NA,NA,NA,NA,NA,NA,NA,NA,NA,NA,NA,NA
ALDWVFR4I0V2D,English,28,male,test,test_books,45810,0,0,0,1,"Bookstores A, B, C, D and E.",Bookstores A and B.,Bookstore E.,exh,ms-h,mo-l,1,0,1,1,0,0,1,0,0,0,0,0,0,1
ALDWVFR4I0V2D,English,28,male,test,test_yarn,25469,0,1,1,0,Stalls D and E.,Stall A.,"Stalls A, B, C, D and E.",ms-l,mo-h,exh,1,1,0,0,1,0,1,1,1,0,0,0,0,0
ALDWVFR4I0V2D,English,28,male,control,control_what,12217,1,0,0,0,NA,NA,NA,NA,NA,NA,NA,1,0,0,1,0,1,1,1,0,0,0,0,0
ALDWVFR4I0V2D,English,28,male,test,test_shoes,11232,1,0,1,0,Store A.,Store F.,Stores A and B.,mo-h,fa,ms-h,0,1,0,1,0,0,1,0,1,0,1,0,0,0
ALDWVFR4I0V2D,English,28,male,test,test_coffee,9523,1,0,0,0,Cafes A and B.,Cafes D and E.,Cafe E.,ms-h,ms-l,mo-l,0,0,1,1,1,0,1,0,0,0,1,0,0,0
ALDWVFR4I0V2D,English,28,male,control,control_how,21280,0,1,1,0,NA,NA,NA,NA,NA,NA,NA,0,1,1,1,0,1,0,0,0,1,0,0,0
ALDWVFR4I0V2D,English,28,male,test,test_dentist,11403,0,0,0,1,"Dentists A, B, C, D and E.",Dentist E.,Dentists D and E.,exh,mo-l,ms-l,1,0,1,0,1,0,1,0,0,0,0,0,0,1
ALDWVFR4I0V2D,English,28,male,control,control_when,21071,0,0,1,0,NA,NA,NA,NA,NA,NA,NA,0,1,0,1,0,1,0,0,0,0,0,0,1
ALDWVFR4I0V2D,English,28,male,test,test_hair,7119,1,0,0,0,Stylist A.,Stylists A and B.,Stylists D and E.,mo-h,ms-h,ms-l,0,1,0,1,1,0,1,0,1,0,0,0,0,0
ALDWVFR4I0V2D,English,28,male,control,control_why,13465,1,0,0,0,NA,NA,NA,NA,NA,NA,NA,1,0,1,1,0,1,0,1,0,0,0,0,0
ALDWVFR4I0V2D,English,28,male,exit_quest,NA,40274,No%2C because the two questions essentially ask the same thing.,Not really since the sentences were clear. However%2C some of the rankings were ambiguous.,No.,NA,NA,NA,NA,NA,NA,NA,NA,NA,NA,NA,NA,NA,NA,NA,NA,NA,NA,NA,NA,NA
A3GQR89E66AQJY,English,25,female,consent,NA,17161,NA,NA,NA,NA,NA,NA,NA,NA,NA,NA,NA,NA,NA,NA,NA,NA,NA,NA,NA,NA,NA,NA,NA,NA
A3GQR89E66AQJY,English,25,female,train,train_m,33717,0,1,1,0,NA,NA,NA,NA,NA,NA,NA,NA,NA,NA,NA,NA,NA,NA,NA,NA,NA,NA,NA,NA
A3GQR89E66AQJY,English,25,female,train,train_f,15820,0,0,0,1,NA,NA,NA,NA,NA,NA,NA,NA,NA,NA,NA,NA,NA,NA,NA,NA,NA,NA,NA,NA
A3GQR89E66AQJY,English,25,female,test,test_yarn,27190,0,0,0,1,Stalls D and E.,Stall A.,Stalls A and B.,ms-l,mo-h,ms-h,0,1,0,1,1,0,1,0,0,0,0,0,0,1
A3GQR89E66AQJY,English,25,female,test,test_books,11376,0,0,0,1,Bookstore A.,Bookstore E.,Bookstores D and E.,mo-h,mo-l,ms-l,0,1,1,0,1,0,1,0,0,0,0,0,0,1
A3GQR89E66AQJY,English,25,female,control,control_why,12138,1,0,0,0,NA,NA,NA,NA,NA,NA,NA,1,1,0,1,0,1,0,0,0,0,0,0,1
A3GQR89E66AQJY,English,25,female,test,test_hair,18504,0,1,0,0,Stylists A and B.,Stylist A.,Stylists D and E.,ms-h,mo-h,ms-l,0,1,0,1,1,0,1,0,1,0,0,0,0,0
A3GQR89E66AQJY,English,25,female,control,control_how,9420,0,0,1,0,NA,NA,NA,NA,NA,NA,NA,1,0,1,1,0,1,0,1,0,0,0,0,0
A3GQR89E66AQJY,English,25,female,test,test_dentist,11161,0,0,0,1,Dentist E.,Dentists A and B.,Dentist A.,mo-l,ms-h,mo-h,0,1,1,1,0,0,1,0,0,0,0,0,0,1
A3GQR89E66AQJY,English,25,female,test,test_coffee,9361,0,0,0,1,Cafe E.,Cafe A.,"Cafes A, B, C, D and E.",mo-l,mo-h,exh,1,1,1,0,0,0,1,0,0,0,0,0,0,1
A3GQR89E66AQJY,English,25,female,control,control_what,6952,0,1,0,0,NA,NA,NA,NA,NA,NA,NA,1,1,0,0,0,1,0,0,0,0,0,0,1
A3GQR89E66AQJY,English,25,female,test,test_shoes,9280,0,1,0,0,Store E.,Stores D and E.,Stores A and B.,mo-l,ms-l,ms-h,0,0,1,1,1,0,1,0,0,0,0,1,0,0
A3GQR89E66AQJY,English,25,female,control,control_when,18440,0,1,1,0,NA,NA,NA,NA,NA,NA,NA,0,1,1,1,0,1,0,0,0,0,1,0,0
A3GQR89E66AQJY,English,25,female,exit_quest,NA,96190,No%2C I would answer the same. Even though it's worded differently%2C it's asking the same thing.,Yes - I often didn't see any difference in the answers and many were just too vague.,No - thank you!,NA,NA,NA,NA,NA,NA,NA,NA,NA,NA,NA,NA,NA,NA,NA,NA,NA,NA,NA,NA,NA
A25ZLJK1VMAXXQ,English,25,male,consent,NA,32833,NA,NA,NA,NA,NA,NA,NA,NA,NA,NA,NA,NA,NA,NA,NA,NA,NA,NA,NA,NA,NA,NA,NA,NA
A25ZLJK1VMAXXQ,English,25,male,train,train_f,16114,0,0,0,1,NA,NA,NA,NA,NA,NA,NA,NA,NA,NA,NA,NA,NA,NA,NA,NA,NA,NA,NA,NA
A25ZLJK1VMAXXQ,English,25,male,train,train_m,29721,0,1,1,0,NA,NA,NA,NA,NA,NA,NA,NA,NA,NA,NA,NA,NA,NA,NA,NA,NA,NA,NA,NA
A25ZLJK1VMAXXQ,English,25,male,test,test_yarn,27427,1,1,1,0,"Stalls A, B, C, D and E.",Stalls D and E.,Stalls A and B.,exh,ms-l,ms-h,1,0,0,1,1,0,1,1,0,0,1,1,0,0
A25ZLJK1VMAXXQ,English,25,male,test,test_dentist,13791,0,0,0,1,Dentist E.,Dentist F.,Dentist A.,mo-l,fa,mo-h,0,1,1,0,0,0,1,0,0,0,0,0,0,1
A25ZLJK1VMAXXQ,English,25,male,control,control_when,12857,1,1,1,0,NA,NA,NA,NA,NA,NA,NA,1,1,0,0,0,1,0,0,0,0,0,0,1
A25ZLJK1VMAXXQ,English,25,male,test,test_shoes,8321,0,0,0,1,Stores D and E.,Store E.,Store A.,ms-l,mo-l,mo-h,0,1,1,0,1,0,1,0,0,0,0,0,0,1
A25ZLJK1VMAXXQ,English,25,male,control,control_how,28626,1,1,1,0,NA,NA,NA,NA,NA,NA,NA,1,1,0,1,0,1,0,0,0,0,0,0,1
A25ZLJK1VMAXXQ,English,25,male,test,test_hair,28744,0,0,0,1,Stylists D and E.,Stylist A.,Stylist E.,ms-l,mo-h,mo-l,0,1,1,0,1,0,1,0,0,0,0,0,0,1
A25ZLJK1VMAXXQ,English,25,male,test,test_books,8435,1,0,0,0,Bookstore A.,Bookstores A and B.,"Bookstores A, B, C, D and E.",mo-h,ms-h,exh,1,1,0,1,0,0,1,0,1,0,0,0,0,0
A25ZLJK1VMAXXQ,English,25,male,control,control_what,17082,1,0,0,0,NA,NA,NA,NA,NA,NA,NA,1,0,1,0,0,1,0,1,0,0,0,0,0
A25ZLJK1VMAXXQ,English,25,male,test,test_coffee,12669,0,0,0,1,Cafes D and E.,Cafes A and B.,"Cafes A, B, C, D and E.",ms-l,ms-h,exh,1,0,0,1,1,0,1,0,0,0,0,0,0,1
A25ZLJK1VMAXXQ,English,25,male,control,control_why,14686,1,1,0,0,NA,NA,NA,NA,NA,NA,NA,0,0,1,1,0,1,0,0,0,0,0,0,1
A25ZLJK1VMAXXQ,English,25,male,exit_quest,NA,35912,No%2C because I would pick my favorite restaurants to recommend to the person.,No%2C because it's a lot of common sense.,This was a fun and unique study. ,NA,NA,NA,NA,NA,NA,NA,NA,NA,NA,NA,NA,NA,NA,NA,NA,NA,NA,NA,NA,NA
A2791MEBSOAD1U,english,35,female,consent,NA,27808,NA,NA,NA,NA,NA,NA,NA,NA,NA,NA,NA,NA,NA,NA,NA,NA,NA,NA,NA,NA,NA,NA,NA,NA
A2791MEBSOAD1U,english,35,female,train,train_f,32499,0,0,0,1,NA,NA,NA,NA,NA,NA,NA,NA,NA,NA,NA,NA,NA,NA,NA,NA,NA,NA,NA,NA
A2791MEBSOAD1U,english,35,female,train,train_m,39703,0,0,0,1,NA,NA,NA,NA,NA,NA,NA,NA,NA,NA,NA,NA,NA,NA,NA,NA,NA,NA,NA,NA
A2791MEBSOAD1U,english,35,female,test,test_yarn,38375,0,0,1,0,Stalls A and B.,Stalls D and E.,"Stalls A, B, C, D and E.",ms-h,ms-l,exh,1,0,0,1,1,0,1,1,0,0,0,0,0,0
A2791MEBSOAD1U,english,35,female,test,test_books,23002,0,1,0,0,Bookstores D and E.,Bookstores A and B.,Bookstore A.,ms-l,ms-h,mo-h,0,1,0,1,1,0,1,0,0,0,1,0,0,0
A2791MEBSOAD1U,english,35,female,control,control_how,25538,0,0,1,0,NA,NA,NA,NA,NA,NA,NA,1,0,1,1,0,1,0,0,0,1,0,0,0
A2791MEBSOAD1U,english,35,female,test,test_dentist,23822,0,0,0,1,Dentists D and E.,Dentist F.,Dentist A.,ms-l,fa,mo-h,0,1,0,0,1,0,1,0,0,0,0,0,0,1
A2791MEBSOAD1U,english,35,female,test,test_shoes,13085,1,0,0,0,Store A.,Stores A and B.,Store F.,mo-h,ms-h,fa,0,1,0,1,0,0,1,0,1,0,0,0,0,0
A2791MEBSOAD1U,english,35,female,control,control_what,17100,0,1,0,0,NA,NA,NA,NA,NA,NA,NA,1,0,1,0,0,1,0,1,0,0,0,0,0
A2791MEBSOAD1U,english,35,female,test,test_coffee,8430,0,0,1,0,Cafe E.,Cafes D and E.,Cafe A.,mo-l,ms-l,mo-h,0,1,1,0,1,0,1,0,1,0,0,0,0,0
A2791MEBSOAD1U,english,35,female,control,control_why,16347,1,0,0,0,NA,NA,NA,NA,NA,NA,NA,1,1,0,1,0,1,0,1,0,0,0,0,0
A2791MEBSOAD1U,english,35,female,test,test_hair,13747,0,1,0,0,Stylist F.,"Stylists A, B, C, D and E.",Stylists D and E.,fa,exh,ms-l,1,0,0,0,1,0,1,1,0,0,0,0,0,0
A2791MEBSOAD1U,english,35,female,control,control_when,39282,0,0,1,0,NA,NA,NA,NA,NA,NA,NA,0,0,0,1,0,1,1,0,0,0,0,0,0
A2791MEBSOAD1U,english,35,female,exit_quest,NA,31660,No%2C I would always give the best options for both questions.,no%2C just a little boring,nope,NA,NA,NA,NA,NA,NA,NA,NA,NA,NA,NA,NA,NA,NA,NA,NA,NA,NA,NA,NA,NA
A34B9FXOCN08RW,english,32,male,consent,NA,22868,NA,NA,NA,NA,NA,NA,NA,NA,NA,NA,NA,NA,NA,NA,NA,NA,NA,NA,NA,NA,NA,NA,NA,NA
A34B9FXOCN08RW,english,32,male,train,train_f,23011,0,0,0,1,NA,NA,NA,NA,NA,NA,NA,NA,NA,NA,NA,NA,NA,NA,NA,NA,NA,NA,NA,NA
A34B9FXOCN08RW,english,32,male,train,train_m,34498,0,0,1,0,NA,NA,NA,NA,NA,NA,NA,NA,NA,NA,NA,NA,NA,NA,NA,NA,NA,NA,NA,NA
A34B9FXOCN08RW,english,32,male,test,test_dentist,19491,0,0,1,0,Dentist F.,Dentists D and E.,Dentist E.,fa,ms-l,mo-l,0,0,1,0,1,0,1,0,0,1,0,0,0,0
A34B9FXOCN08RW,english,32,male,test,test_coffee,89244,1,1,1,0,Cafes D and E.,Cafe F.,Cafe A.,ms-l,fa,mo-h,0,1,0,0,1,0,1,0,1,0,0,1,0,0
A34B9FXOCN08RW,english,32,male,control,control_how,25075,1,1,1,0,NA,NA,NA,NA,NA,NA,NA,1,0,0,1,0,1,0,1,0,0,1,0,0
A34B9FXOCN08RW,english,32,male,test,test_yarn,12738,1,1,1,0,Stalls D and E.,Stalls A and B.,Stall F.,ms-l,ms-h,fa,0,0,0,1,1,0,1,0,0,0,1,1,0,0
A34B9FXOCN08RW,english,32,male,control,control_what,9661,0,1,0,0,NA,NA,NA,NA,NA,NA,NA,0,0,1,1,0,1,0,0,0,1,1,0,0
A34B9FXOCN08RW,english,32,male,test,test_books,18156,1,1,1,0,Bookstores A and B.,Bookstores D and E.,Bookstore E.,ms-h,ms-l,mo-l,0,0,1,1,1,0,1,0,0,1,1,1,0,0
A34B9FXOCN08RW,english,32,male,test,test_shoes,14819,1,1,1,0,Stores A and B.,Store E.,Stores D and E.,ms-h,mo-l,ms-l,0,0,1,1,1,0,1,0,0,1,1,1,0,0
A34B9FXOCN08RW,english,32,male,control,control_why,14037,1,1,0,0,NA,NA,NA,NA,NA,NA,NA,0,1,1,1,0,1,0,0,1,1,1,0,0
A34B9FXOCN08RW,english,32,male,test,test_hair,9308,1,1,1,0,Stylists D and E.,Stylist E.,Stylists A and B.,ms-l,mo-l,ms-h,0,0,1,1,1,0,1,0,0,1,1,1,0,0
A34B9FXOCN08RW,english,32,male,control,control_when,8770,1,1,1,0,NA,NA,NA,NA,NA,NA,NA,0,1,1,1,0,1,0,0,1,1,1,0,0
A34B9FXOCN08RW,english,32,male,exit_quest,NA,78445,no seems perfect to me.,I wondered if I was getting tricked with some of the stuff sounding familiar. hope I did the task ok for you. ,thank you for allowing me to contribute.,NA,NA,NA,NA,NA,NA,NA,NA,NA,NA,NA,NA,NA,NA,NA,NA,NA,NA,NA,NA,NA
A1YIBSKY9U31X6,English,37,male,consent,NA,25047,NA,NA,NA,NA,NA,NA,NA,NA,NA,NA,NA,NA,NA,NA,NA,NA,NA,NA,NA,NA,NA,NA,NA,NA
A1YIBSKY9U31X6,English,37,male,train,train_m,60344,0,0,1,1,NA,NA,NA,NA,NA,NA,NA,NA,NA,NA,NA,NA,NA,NA,NA,NA,NA,NA,NA,NA
A1YIBSKY9U31X6,English,37,male,train,train_f,36206,0,0,0,1,NA,NA,NA,NA,NA,NA,NA,NA,NA,NA,NA,NA,NA,NA,NA,NA,NA,NA,NA,NA
A1YIBSKY9U31X6,English,37,male,test,test_books,53561,0,0,0,1,Bookstore F.,Bookstore E.,Bookstores D and E.,fa,mo-l,ms-l,0,0,1,0,1,0,1,0,0,0,0,0,0,1
A1YIBSKY9U31X6,English,37,male,test,test_coffee,32417,1,1,1,0,Cafe E.,Cafe A.,"Cafes A, B, C, D and E.",mo-l,mo-h,exh,1,1,1,0,0,0,1,1,1,1,0,0,0,0
A1YIBSKY9U31X6,English,37,male,control,control_why,26310,1,1,0,0,NA,NA,NA,NA,NA,NA,NA,1,1,0,0,0,1,1,1,1,0,0,0,0
A1YIBSKY9U31X6,English,37,male,test,test_dentist,30680,0,0,0,1,Dentist F.,Dentists D and E.,"Dentists A, B, C, D and E.",fa,ms-l,exh,1,0,0,0,1,0,1,0,0,0,0,0,0,1
A1YIBSKY9U31X6,English,37,male,test,test_hair,18313,1,0,0,0,Stylist A.,Stylists D and E.,Stylist F.,mo-h,ms-l,fa,0,1,0,0,1,0,1,0,1,0,0,0,0,0
A1YIBSKY9U31X6,English,37,male,control,control_when,24226,0,0,0,1,NA,NA,NA,NA,NA,NA,NA,1,0,0,1,0,1,0,1,0,0,0,0,0
A1YIBSKY9U31X6,English,37,male,test,test_yarn,14200,0,0,1,0,Stall F.,"Stalls A, B, C, D and E.",Stalls A and B.,fa,exh,ms-h,1,0,0,1,0,0,1,0,0,0,1,0,0,0
A1YIBSKY9U31X6,English,37,male,control,control_how,19224,1,0,0,0,NA,NA,NA,NA,NA,NA,NA,0,0,1,0,0,1,0,0,0,1,0,0,0
A1YIBSKY9U31X6,English,37,male,test,test_shoes,10629,0,0,1,0,Store E.,Stores A and B.,Store A.,mo-l,ms-h,mo-h,0,1,1,1,0,0,1,0,1,0,0,0,0,0
A1YIBSKY9U31X6,English,37,male,control,control_what,17427,1,0,0,0,NA,NA,NA,NA,NA,NA,NA,1,1,1,0,0,1,0,1,0,0,0,0,0
A1YIBSKY9U31X6,English,37,male,exit_quest,NA,29400,No%2C basically the same question.,Tedious.,too long!,NA,NA,NA,NA,NA,NA,NA,NA,NA,NA,NA,NA,NA,NA,NA,NA,NA,NA,NA,NA,NA
AC5UD8N187QD6,English,47,male,consent,NA,14658,NA,NA,NA,NA,NA,NA,NA,NA,NA,NA,NA,NA,NA,NA,NA,NA,NA,NA,NA,NA,NA,NA,NA,NA
AC5UD8N187QD6,English,47,male,train,train_m,21589,0,0,1,0,NA,NA,NA,NA,NA,NA,NA,NA,NA,NA,NA,NA,NA,NA,NA,NA,NA,NA,NA,NA
AC5UD8N187QD6,English,47,male,train,train_f,25271,0,0,0,1,NA,NA,NA,NA,NA,NA,NA,NA,NA,NA,NA,NA,NA,NA,NA,NA,NA,NA,NA,NA
AC5UD8N187QD6,English,47,male,test,test_books,34307,0,0,0,1,Bookstore F.,Bookstores D and E.,Bookstore A.,fa,ms-l,mo-h,0,1,0,0,1,0,1,0,0,0,0,0,0,1
AC5UD8N187QD6,English,47,male,control,control_how,26783,0,0,0,1,NA,NA,NA,NA,NA,NA,NA,1,0,0,1,0,1,0,0,0,0,0,0,1
AC5UD8N187QD6,English,47,male,test,test_yarn,17611,1,0,0,0,Stall A.,Stall E.,Stalls A and B.,mo-h,mo-l,ms-h,0,1,1,1,0,0,1,0,1,0,0,0,0,0
AC5UD8N187QD6,English,47,male,test,test_dentist,18769,0,0,0,1,Dentists A and B.,Dentist E.,Dentist A.,ms-h,mo-l,mo-h,0,1,1,1,0,0,1,0,0,0,0,0,0,1
AC5UD8N187QD6,English,47,male,control,control_why,13825,1,1,0,0,NA,NA,NA,NA,NA,NA,NA,1,1,1,0,0,1,0,0,0,0,0,0,1
AC5UD8N187QD6,English,47,male,test,test_hair,5137,0,0,0,1,Stylist A.,Stylists D and E.,Stylist F.,mo-h,ms-l,fa,0,1,0,0,1,0,1,0,0,0,0,0,0,1
AC5UD8N187QD6,English,47,male,control,control_what,15545,1,1,0,0,NA,NA,NA,NA,NA,NA,NA,1,0,0,1,0,1,0,0,0,0,0,0,1
AC5UD8N187QD6,English,47,male,test,test_coffee,8663,0,0,0,1,Cafe F.,Cafes A and B.,Cafe A.,fa,ms-h,mo-h,0,1,0,1,0,0,1,0,0,0,0,0,0,1
AC5UD8N187QD6,English,47,male,test,test_shoes,13970,0,0,0,1,"Stores A, B, C, D and E.",Store E.,Stores D and E.,exh,mo-l,ms-l,1,0,1,0,1,0,1,0,0,0,0,0,0,1
AC5UD8N187QD6,English,47,male,control,control_when,56247,0,1,0,0,NA,NA,NA,NA,NA,NA,NA,0,1,0,1,0,1,0,0,0,0,0,0,1
AC5UD8N187QD6,English,47,male,exit_quest,NA,62756,Yes%2C I'd answer more comprehensively%2C since s/he's not asking for a recommendation,"Yes%2C it's a bit ""thinky"" for 9:40 pm. Entertaining though. ",No%2C thanks. ,NA,NA,NA,NA,NA,NA,NA,NA,NA,NA,NA,NA,NA,NA,NA,NA,NA,NA,NA,NA,NA
A2WWYVKGZZXBOB,English,36,male,consent,NA,19202,NA,NA,NA,NA,NA,NA,NA,NA,NA,NA,NA,NA,NA,NA,NA,NA,NA,NA,NA,NA,NA,NA,NA,NA
A2WWYVKGZZXBOB,English,36,male,train,train_f,28825,0,0,0,1,NA,NA,NA,NA,NA,NA,NA,NA,NA,NA,NA,NA,NA,NA,NA,NA,NA,NA,NA,NA
A2WWYVKGZZXBOB,English,36,male,train,train_m,29660,0,0,1,0,NA,NA,NA,NA,NA,NA,NA,NA,NA,NA,NA,NA,NA,NA,NA,NA,NA,NA,NA,NA
A2WWYVKGZZXBOB,English,36,male,test,test_shoes,124116,0,0,0,1,Stores A and B.,Store E.,"Stores A, B, C, D and E.",ms-h,mo-l,exh,1,0,1,1,0,0,1,0,0,0,0,0,0,1
A2WWYVKGZZXBOB,English,36,male,control,control_how,115588,0,0,1,0,NA,NA,NA,NA,NA,NA,NA,0,1,1,0,0,1,0,0,0,0,0,0,1
A2WWYVKGZZXBOB,English,36,male,test,test_yarn,11677,0,0,0,1,Stall E.,Stalls A and B.,Stalls D and E.,mo-l,ms-h,ms-l,0,0,1,1,1,0,1,0,0,0,0,0,0,1
A2WWYVKGZZXBOB,English,36,male,test,test_hair,5770,0,0,0,1,"Stylists A, B, C, D and E.",Stylist F.,Stylists A and B.,exh,fa,ms-h,1,0,0,1,0,0,1,0,0,0,0,0,0,1
A2WWYVKGZZXBOB,English,36,male,control,control_why,24610,1,1,0,0,NA,NA,NA,NA,NA,NA,NA,0,0,1,0,0,1,0,0,0,0,0,0,1
A2WWYVKGZZXBOB,English,36,male,test,test_dentist,9675,0,0,0,1,Dentists A and B.,Dentists D and E.,Dentist E.,ms-h,ms-l,mo-l,0,0,1,1,1,0,1,0,0,0,0,0,0,1
A2WWYVKGZZXBOB,English,36,male,control,control_what,9850,1,0,0,0,NA,NA,NA,NA,NA,NA,NA,0,1,1,1,0,1,0,0,0,0,0,0,1
A2WWYVKGZZXBOB,English,36,male,test,test_books,6087,0,0,0,1,Bookstore A.,Bookstores D and E.,Bookstore E.,mo-h,ms-l,mo-l,0,1,1,0,1,0,1,0,0,0,0,0,0,1
A2WWYVKGZZXBOB,English,36,male,test,test_coffee,3930,0,0,0,1,Cafe F.,Cafes D and E.,Cafes A and B.,fa,ms-l,ms-h,0,0,0,1,1,0,1,0,0,0,0,0,0,1
A2WWYVKGZZXBOB,English,36,male,control,control_when,17718,0,0,0,1,NA,NA,NA,NA,NA,NA,NA,0,0,1,1,0,1,0,0,0,0,0,0,1
A2WWYVKGZZXBOB,English,36,male,exit_quest,NA,28805,No.,Yes%2C I'm not good with riddles.,,NA,NA,NA,NA,NA,NA,NA,NA,NA,NA,NA,NA,NA,NA,NA,NA,NA,NA,NA,NA,NA
A25FNSFSB048DL,English,37,male,consent,NA,75392,NA,NA,NA,NA,NA,NA,NA,NA,NA,NA,NA,NA,NA,NA,NA,NA,NA,NA,NA,NA,NA,NA,NA,NA
A25FNSFSB048DL,English,37,male,train,train_f,37140,0,0,0,1,NA,NA,NA,NA,NA,NA,NA,NA,NA,NA,NA,NA,NA,NA,NA,NA,NA,NA,NA,NA
A25FNSFSB048DL,English,37,male,train,train_m,40134,0,0,1,0,NA,NA,NA,NA,NA,NA,NA,NA,NA,NA,NA,NA,NA,NA,NA,NA,NA,NA,NA,NA
A25FNSFSB048DL,English,37,male,test,test_shoes,55509,0,0,0,1,Stores A and B.,Stores D and E.,Store A.,ms-h,ms-l,mo-h,0,1,0,1,1,0,1,0,0,0,0,0,0,1
A25FNSFSB048DL,English,37,male,test,test_coffee,46904,1,1,1,0,Cafes A and B.,Cafe F.,Cafe E.,ms-h,fa,mo-l,0,0,1,1,0,0,1,0,0,1,1,0,0,0
A25FNSFSB048DL,English,37,male,control,control_what,18909,1,0,0,0,NA,NA,NA,NA,NA,NA,NA,0,1,1,0,0,1,0,0,1,1,0,0,0
A25FNSFSB048DL,English,37,male,test,test_hair,15061,1,0,0,0,Stylist A.,Stylist E.,"Stylists A, B, C, D and E.",mo-h,mo-l,exh,1,1,1,0,0,0,1,0,1,0,0,0,0,0
A25FNSFSB048DL,English,37,male,control,control_how,32727,0,1,1,0,NA,NA,NA,NA,NA,NA,NA,1,1,0,0,0,1,0,1,0,0,0,0,0
A25FNSFSB048DL,English,37,male,test,test_books,34192,0,0,1,0,Bookstores D and E.,Bookstore E.,Bookstores A and B.,ms-l,mo-l,ms-h,0,0,1,1,1,0,1,0,0,0,1,0,0,0
A25FNSFSB048DL,English,37,male,test,test_yarn,12805,0,1,0,0,Stall F.,Stall A.,Stalls A and B.,fa,mo-h,ms-h,0,1,0,1,0,0,1,0,1,0,0,0,0,0
A25FNSFSB048DL,English,37,male,control,control_why,15427,0,1,0,0,NA,NA,NA,NA,NA,NA,NA,1,0,1,0,0,1,0,1,0,0,0,0,0
A25FNSFSB048DL,English,37,male,test,test_dentist,11638,0,0,1,0,Dentists D and E.,"Dentists A, B, C, D and E.",Dentist A.,ms-l,exh,mo-h,1,1,0,0,1,0,1,0,1,0,0,0,0,0
A25FNSFSB048DL,English,37,male,control,control_when,21959,1,1,1,0,NA,NA,NA,NA,NA,NA,NA,1,0,0,1,0,1,0,1,0,0,0,0,0
A25FNSFSB048DL,English,37,male,exit_quest,NA,55409,No as both ask for lists of who serves brunch not anrecommendation,Yes some of the clues were confusing,It would be interesting to see the correct answers. ,NA,NA,NA,NA,NA,NA,NA,NA,NA,NA,NA,NA,NA,NA,NA,NA,NA,NA,NA,NA,NA
A10UWP6T47G9TR,English,32,female,consent,NA,28296,NA,NA,NA,NA,NA,NA,NA,NA,NA,NA,NA,NA,NA,NA,NA,NA,NA,NA,NA,NA,NA,NA,NA,NA
A10UWP6T47G9TR,English,32,female,train,train_f,26626,0,0,0,1,NA,NA,NA,NA,NA,NA,NA,NA,NA,NA,NA,NA,NA,NA,NA,NA,NA,NA,NA,NA
A10UWP6T47G9TR,English,32,female,train,train_m,21075,0,0,1,0,NA,NA,NA,NA,NA,NA,NA,NA,NA,NA,NA,NA,NA,NA,NA,NA,NA,NA,NA,NA
A10UWP6T47G9TR,English,32,female,test,test_yarn,58847,0,0,0,1,Stalls D and E.,Stall A.,Stalls A and B.,ms-l,mo-h,ms-h,0,1,0,1,1,0,1,0,0,0,0,0,0,1
A10UWP6T47G9TR,English,32,female,test,test_books,17491,0,0,1,0,Bookstore F.,"Bookstores A, B, C, D and E.",Bookstore A.,fa,exh,mo-h,1,1,0,0,0,0,1,0,1,0,0,0,0,0
A10UWP6T47G9TR,English,32,female,control,control_how,24292,0,0,1,0,NA,NA,NA,NA,NA,NA,NA,1,0,0,0,0,1,0,1,0,0,0,0,0
A10UWP6T47G9TR,English,32,female,test,test_dentist,39493,0,1,0,0,Dentists A and B.,Dentist A.,Dentist E.,ms-h,mo-h,mo-l,0,1,1,1,0,0,1,0,1,0,0,0,0,0
A10UWP6T47G9TR,English,32,female,control,control_when,37870,0,0,1,0,NA,NA,NA,NA,NA,NA,NA,1,1,1,0,0,1,0,1,0,0,0,0,0
A10UWP6T47G9TR,English,32,female,test,test_coffee,20118,0,0,0,1,Cafe E.,Cafes A and B.,Cafes D and E.,mo-l,ms-h,ms-l,0,0,1,1,1,0,1,0,0,0,0,0,0,1
A10UWP6T47G9TR,English,32,female,test,test_hair,19023,0,0,1,0,Stylists A and B.,Stylist A.,"Stylists A, B, C, D and E.",ms-h,mo-h,exh,1,1,0,1,0,0,1,1,0,0,0,0,0,0
A10UWP6T47G9TR,English,32,female,control,control_what,21484,1,0,0,0,NA,NA,NA,NA,NA,NA,NA,1,0,1,0,0,1,1,0,0,0,0,0,0
A10UWP6T47G9TR,English,32,female,test,test_shoes,13600,0,0,0,1,Store A.,Stores A and B.,Store F.,mo-h,ms-h,fa,0,1,0,1,0,0,1,0,0,0,0,0,0,1
A10UWP6T47G9TR,English,32,female,control,control_why,20851,1,0,0,0,NA,NA,NA,NA,NA,NA,NA,1,0,1,0,0,1,0,0,0,0,0,0,1
A10UWP6T47G9TR,English,32,female,exit_quest,NA,119804,No. The fact that they are looking for somewhere that serves brunch already implies that they are looking for a restaurant or somewhere that serves food.,No. I like language and thinking about the weird rules English can have.,I tried to answer the questions to the best of my ability.,NA,NA,NA,NA,NA,NA,NA,NA,NA,NA,NA,NA,NA,NA,NA,NA,NA,NA,NA,NA,NA
A20SL254675EOK,English,25,male,consent,NA,12540,NA,NA,NA,NA,NA,NA,NA,NA,NA,NA,NA,NA,NA,NA,NA,NA,NA,NA,NA,NA,NA,NA,NA,NA
A20SL254675EOK,English,25,male,train,train_f,30560,0,0,0,1,NA,NA,NA,NA,NA,NA,NA,NA,NA,NA,NA,NA,NA,NA,NA,NA,NA,NA,NA,NA
A20SL254675EOK,English,25,male,train,train_m,19664,0,0,1,0,NA,NA,NA,NA,NA,NA,NA,NA,NA,NA,NA,NA,NA,NA,NA,NA,NA,NA,NA,NA
A20SL254675EOK,English,25,male,test,test_books,23798,0,1,0,0,"Bookstores A, B, C, D and E.",Bookstore A.,Bookstore E.,exh,mo-h,mo-l,1,1,1,0,0,0,1,0,1,0,0,0,0,0
A20SL254675EOK,English,25,male,control,control_what,16005,0,0,0,1,NA,NA,NA,NA,NA,NA,NA,1,1,0,0,0,1,0,1,0,0,0,0,0
A20SL254675EOK,English,25,male,test,test_dentist,32650,1,1,1,0,Dentists D and E.,Dentists A and B.,Dentist A.,ms-l,ms-h,mo-h,0,1,0,1,1,0,1,0,1,0,1,1,0,0
A20SL254675EOK,English,25,male,test,test_coffee,37115,1,1,1,0,Cafes D and E.,Cafe F.,Cafe A.,ms-l,fa,mo-h,0,1,0,0,1,0,1,0,1,0,0,1,0,0
A20SL254675EOK,English,25,male,control,control_when,32489,0,0,1,0,NA,NA,NA,NA,NA,NA,NA,1,0,0,1,0,1,0,1,0,0,1,0,0
A20SL254675EOK,English,25,male,test,test_shoes,8113,1,1,1,0,Stores A and B.,Store F.,Store A.,ms-h,fa,mo-h,0,1,0,1,0,0,1,0,1,0,1,0,0,0
A20SL254675EOK,English,25,male,control,control_how,24750,0,1,1,0,NA,NA,NA,NA,NA,NA,NA,1,0,1,0,0,1,0,1,0,1,0,0,0
A20SL254675EOK,English,25,male,test,test_yarn,8031,1,0,1,0,Stall F.,Stalls A and B.,Stalls D and E.,fa,ms-h,ms-l,0,0,0,1,1,0,1,0,0,0,0,1,0,0
A20SL254675EOK,English,25,male,test,test_hair,9527,1,1,1,0,Stylist A.,"Stylists A, B, C, D and E.",Stylists D and E.,mo-h,exh,ms-l,1,1,0,0,1,0,1,1,1,0,0,1,0,0
A20SL254675EOK,English,25,male,control,control_why,20647,0,0,0,1,NA,NA,NA,NA,NA,NA,NA,1,0,0,1,0,1,1,1,0,0,1,0,0
A20SL254675EOK,English,25,male,exit_quest,NA,67016,I would not. It is the same question.,no.,Every time there was an A%2CB%2CC%2CD%2CE%2CF question everyone was right. The person did go to all of them and rated them. ,NA,NA,NA,NA,NA,NA,NA,NA,NA,NA,NA,NA,NA,NA,NA,NA,NA,NA,NA,NA,NA
A36OS4XKUJF4NB,English,20,male,consent,NA,31246,NA,NA,NA,NA,NA,NA,NA,NA,NA,NA,NA,NA,NA,NA,NA,NA,NA,NA,NA,NA,NA,NA,NA,NA
A36OS4XKUJF4NB,English,20,male,train,train_m,66155,0,0,0,1,NA,NA,NA,NA,NA,NA,NA,NA,NA,NA,NA,NA,NA,NA,NA,NA,NA,NA,NA,NA
A36OS4XKUJF4NB,English,20,male,train,train_f,51144,0,0,0,1,NA,NA,NA,NA,NA,NA,NA,NA,NA,NA,NA,NA,NA,NA,NA,NA,NA,NA,NA,NA
A36OS4XKUJF4NB,English,20,male,test,test_shoes,38962,0,0,0,1,Store A.,Store E.,Stores D and E.,mo-h,mo-l,ms-l,0,1,1,0,1,0,1,0,0,0,0,0,0,1
A36OS4XKUJF4NB,English,20,male,test,test_coffee,45126,0,0,0,1,Cafes D and E.,"Cafes A, B, C, D and E.",Cafe E.,ms-l,exh,mo-l,1,0,1,0,1,0,1,0,0,0,0,0,0,1
A36OS4XKUJF4NB,English,20,male,control,control_why,8275,1,0,0,0,NA,NA,NA,NA,NA,NA,NA,0,1,0,1,0,1,0,0,0,0,0,0,1
A36OS4XKUJF4NB,English,20,male,test,test_books,6446,0,0,0,1,Bookstores A and B.,Bookstores D and E.,Bookstore E.,ms-h,ms-l,mo-l,0,0,1,1,1,0,1,0,0,0,0,0,0,1
A36OS4XKUJF4NB,English,20,male,test,test_yarn,10409,0,0,0,1,Stall A.,Stall E.,"Stalls A, B, C, D and E.",mo-h,mo-l,exh,1,1,1,0,0,0,1,0,0,0,0,0,0,1
A36OS4XKUJF4NB,English,20,male,control,control_when,11176,0,1,0,0,NA,NA,NA,NA,NA,NA,NA,1,1,0,0,0,1,0,0,0,0,0,0,1
A36OS4XKUJF4NB,English,20,male,test,test_dentist,10957,0,0,0,1,Dentist E.,Dentist F.,Dentists A and B.,mo-l,fa,ms-h,0,0,1,1,0,0,1,0,0,0,0,0,0,1
A36OS4XKUJF4NB,English,20,male,control,control_how,11685,0,0,1,0,NA,NA,NA,NA,NA,NA,NA,0,1,1,0,0,1,0,0,0,0,0,0,1
A36OS4XKUJF4NB,English,20,male,test,test_hair,9583,0,0,0,1,Stylists D and E.,Stylist E.,Stylists A and B.,ms-l,mo-l,ms-h,0,0,1,1,1,0,1,0,0,0,0,0,0,1
A36OS4XKUJF4NB,English,20,male,control,control_what,37253,1,0,0,0,NA,NA,NA,NA,NA,NA,NA,0,1,1,1,0,1,0,0,0,0,0,0,1
A36OS4XKUJF4NB,English,20,male,exit_quest,NA,64951,No%2C they are asking the same thing and looking for the same answer%2C they only phrased it a different way,No%2C it was easy,On the question about Luke%2C Obi-Wan and Darth Vader%2C I misclicked and did not choose an option when I meant to say yes,NA,NA,NA,NA,NA,NA,NA,NA,NA,NA,NA,NA,NA,NA,NA,NA,NA,NA,NA,NA,NA
A3QSJY1FFN0N6V,English,35,female,consent,NA,20777,NA,NA,NA,NA,NA,NA,NA,NA,NA,NA,NA,NA,NA,NA,NA,NA,NA,NA,NA,NA,NA,NA,NA,NA
A3QSJY1FFN0N6V,English,35,female,train,train_m,37453,0,0,1,0,NA,NA,NA,NA,NA,NA,NA,NA,NA,NA,NA,NA,NA,NA,NA,NA,NA,NA,NA,NA
A3QSJY1FFN0N6V,English,35,female,train,train_f,69761,0,0,0,1,NA,NA,NA,NA,NA,NA,NA,NA,NA,NA,NA,NA,NA,NA,NA,NA,NA,NA,NA,NA
A3QSJY1FFN0N6V,English,35,female,test,test_hair,79441,0,0,0,1,Stylist A.,Stylist F.,Stylists A and B.,mo-h,fa,ms-h,0,1,0,1,0,0,1,0,0,0,0,0,0,1
A3QSJY1FFN0N6V,English,35,female,test,test_coffee,29445,1,1,1,0,"Cafes A, B, C, D and E.",Cafes A and B.,Cafe E.,exh,ms-h,mo-l,1,0,1,1,0,0,1,1,0,1,1,0,0,0
A3QSJY1FFN0N6V,English,35,female,control,control_why,22857,1,1,0,0,NA,NA,NA,NA,NA,NA,NA,0,1,1,0,0,1,1,0,1,1,0,0,0
A3QSJY1FFN0N6V,English,35,female,test,test_dentist,30082,1,1,1,0,Dentists A and B.,Dentist F.,Dentist E.,ms-h,fa,mo-l,0,0,1,1,0,0,1,0,0,1,1,0,0,0
A3QSJY1FFN0N6V,English,35,female,test,test_books,15802,1,1,1,0,Bookstores A and B.,Bookstore E.,Bookstore A.,ms-h,mo-l,mo-h,0,1,1,1,0,0,1,0,1,1,1,0,0,0
A3QSJY1FFN0N6V,English,35,female,control,control_how,26405,0,0,1,0,NA,NA,NA,NA,NA,NA,NA,1,1,1,0,0,1,0,1,1,1,0,0,0
A3QSJY1FFN0N6V,English,35,female,test,test_shoes,14489,1,1,1,0,Stores A and B.,Store A.,Store E.,ms-h,mo-h,mo-l,0,1,1,1,0,0,1,0,1,1,1,0,0,0
A3QSJY1FFN0N6V,English,35,female,control,control_what,23117,1,1,0,0,NA,NA,NA,NA,NA,NA,NA,1,1,1,0,0,1,0,1,1,1,0,0,0
A3QSJY1FFN0N6V,English,35,female,test,test_yarn,19636,1,1,1,0,Stalls D and E.,Stalls A and B.,Stall A.,ms-l,ms-h,mo-h,0,1,0,1,1,0,1,0,1,0,1,1,0,0
A3QSJY1FFN0N6V,English,35,female,control,control_when,30467,0,0,1,0,NA,NA,NA,NA,NA,NA,NA,1,0,1,1,0,1,0,1,0,1,1,0,0
A3QSJY1FFN0N6V,English,35,female,exit_quest,NA,77976,I would answer the same for each question because he is asking the same thing%2C the sentences are just worded differently.,I thought it was a little challenging because the answers could vary depending on the way you interpret the question.,No,NA,NA,NA,NA,NA,NA,NA,NA,NA,NA,NA,NA,NA,NA,NA,NA,NA,NA,NA,NA,NA
A1UKAS30R0MFI6,english,25,male,consent,NA,31985,NA,NA,NA,NA,NA,NA,NA,NA,NA,NA,NA,NA,NA,NA,NA,NA,NA,NA,NA,NA,NA,NA,NA,NA
A1UKAS30R0MFI6,english,25,male,train,train_m,25808,0,0,1,0,NA,NA,NA,NA,NA,NA,NA,NA,NA,NA,NA,NA,NA,NA,NA,NA,NA,NA,NA,NA
A1UKAS30R0MFI6,english,25,male,train,train_f,24862,0,0,0,1,NA,NA,NA,NA,NA,NA,NA,NA,NA,NA,NA,NA,NA,NA,NA,NA,NA,NA,NA,NA
A1UKAS30R0MFI6,english,25,male,test,test_coffee,32828,1,1,1,0,Cafe F.,"Cafes A, B, C, D and E.",Cafes D and E.,fa,exh,ms-l,1,0,0,0,1,0,1,1,0,0,0,1,0,0
A1UKAS30R0MFI6,english,25,male,test,test_yarn,13879,1,1,1,0,Stall E.,"Stalls A, B, C, D and E.",Stalls D and E.,mo-l,exh,ms-l,1,0,1,0,1,0,1,1,0,1,0,1,0,0
A1UKAS30R0MFI6,english,25,male,control,control_why,43076,1,1,0,0,NA,NA,NA,NA,NA,NA,NA,0,1,0,1,0,1,1,0,1,0,1,0,0
A1UKAS30R0MFI6,english,25,male,test,test_books,16933,1,1,1,0,Bookstore E.,Bookstore F.,Bookstores D and E.,mo-l,fa,ms-l,0,0,1,0,1,0,1,0,0,1,0,1,0,0
A1UKAS30R0MFI6,english,25,male,control,control_how,23696,0,1,0,0,NA,NA,NA,NA,NA,NA,NA,0,1,0,1,0,1,0,0,1,0,1,0,0
A1UKAS30R0MFI6,english,25,male,test,test_shoes,14114,1,1,1,0,"Stores A, B, C, D and E.",Store E.,Stores A and B.,exh,mo-l,ms-h,1,0,1,1,0,0,1,1,0,1,1,0,0,0
A1UKAS30R0MFI6,english,25,male,test,test_hair,43075,1,1,1,0,Stylists D and E.,Stylists A and B.,Stylist E.,ms-l,ms-h,mo-l,0,0,1,1,1,0,1,0,0,1,1,1,0,0
A1UKAS30R0MFI6,english,25,male,control,control_when,23277,1,1,0,0,NA,NA,NA,NA,NA,NA,NA,0,1,1,1,0,1,0,0,1,1,1,0,0
A1UKAS30R0MFI6,english,25,male,test,test_dentist,11510,1,1,1,0,Dentist F.,Dentist A.,Dentists A and B.,fa,mo-h,ms-h,0,1,0,1,0,0,1,0,1,0,1,0,0,0
A1UKAS30R0MFI6,english,25,male,control,control_what,11568,1,0,0,0,NA,NA,NA,NA,NA,NA,NA,1,0,1,0,0,1,0,1,0,1,0,0,0
A1UKAS30R0MFI6,english,25,male,exit_quest,NA,41942,No because in both questions the traveler wants to know where to get brunch.,No I did not because I was able to read and ID the differences,no,NA,NA,NA,NA,NA,NA,NA,NA,NA,NA,NA,NA,NA,NA,NA,NA,NA,NA,NA,NA,NA
A3HXIGBCL1CRFS,english,39,male,consent,NA,31797,NA,NA,NA,NA,NA,NA,NA,NA,NA,NA,NA,NA,NA,NA,NA,NA,NA,NA,NA,NA,NA,NA,NA,NA
A3HXIGBCL1CRFS,english,39,male,train,train_f,40991,0,0,0,1,NA,NA,NA,NA,NA,NA,NA,NA,NA,NA,NA,NA,NA,NA,NA,NA,NA,NA,NA,NA
A3HXIGBCL1CRFS,english,39,male,train,train_m,32594,0,0,1,0,NA,NA,NA,NA,NA,NA,NA,NA,NA,NA,NA,NA,NA,NA,NA,NA,NA,NA,NA,NA
A3HXIGBCL1CRFS,english,39,male,test,test_yarn,57599,0,0,0,1,Stalls A and B.,Stalls D and E.,Stall F.,ms-h,ms-l,fa,0,0,0,1,1,0,1,0,0,0,0,0,0,1
A3HXIGBCL1CRFS,english,39,male,control,control_how,37398,0,1,0,0,NA,NA,NA,NA,NA,NA,NA,0,0,1,1,0,1,0,0,0,0,0,0,1
A3HXIGBCL1CRFS,english,39,male,test,test_coffee,43361,0,0,0,1,Cafe A.,Cafes A and B.,Cafe F.,mo-h,ms-h,fa,0,1,0,1,0,0,1,0,0,0,0,0,0,1
A3HXIGBCL1CRFS,english,39,male,test,test_books,28088,0,0,0,1,Bookstores A and B.,Bookstores D and E.,Bookstore E.,ms-h,ms-l,mo-l,0,0,1,1,1,0,1,0,0,0,0,0,0,1
A3HXIGBCL1CRFS,english,39,male,control,control_what,23609,1,0,0,0,NA,NA,NA,NA,NA,NA,NA,0,1,1,1,0,1,0,0,0,0,0,0,1
A3HXIGBCL1CRFS,english,39,male,test,test_dentist,18712,0,0,0,1,Dentists A and B.,Dentist E.,Dentists D and E.,ms-h,mo-l,ms-l,0,0,1,1,1,0,1,0,0,0,0,0,0,1
A3HXIGBCL1CRFS,english,39,male,control,control_when,40203,0,0,0,1,NA,NA,NA,NA,NA,NA,NA,0,1,1,1,0,1,0,0,0,0,0,0,1
A3HXIGBCL1CRFS,english,39,male,test,test_hair,24768,0,0,0,1,Stylist F.,Stylist E.,Stylists D and E.,fa,mo-l,ms-l,0,0,1,0,1,0,1,0,0,0,0,0,0,1
A3HXIGBCL1CRFS,english,39,male,test,test_shoes,19606,0,0,0,1,Store E.,"Stores A, B, C, D and E.",Store A.,mo-l,exh,mo-h,1,1,1,0,0,0,1,0,0,0,0,0,0,1
A3HXIGBCL1CRFS,english,39,male,control,control_why,30611,1,0,0,0,NA,NA,NA,NA,NA,NA,NA,1,1,0,0,0,1,0,0,0,0,0,0,1
A3HXIGBCL1CRFS,english,39,male,exit_quest,NA,76198,I would not answer differently.,Yes. It was confusing.,,NA,NA,NA,NA,NA,NA,NA,NA,NA,NA,NA,NA,NA,NA,NA,NA,NA,NA,NA,NA,NA
A3A07QA5U733HQ,English,34,male,consent,NA,28587,NA,NA,NA,NA,NA,NA,NA,NA,NA,NA,NA,NA,NA,NA,NA,NA,NA,NA,NA,NA,NA,NA,NA,NA
A3A07QA5U733HQ,English,34,male,train,train_f,85075,0,0,0,1,NA,NA,NA,NA,NA,NA,NA,NA,NA,NA,NA,NA,NA,NA,NA,NA,NA,NA,NA,NA
A3A07QA5U733HQ,English,34,male,train,train_m,37401,0,1,1,0,NA,NA,NA,NA,NA,NA,NA,NA,NA,NA,NA,NA,NA,NA,NA,NA,NA,NA,NA,NA
A3A07QA5U733HQ,English,34,male,test,test_shoes,49125,1,1,1,0,Stores A and B.,Stores D and E.,Store E.,ms-h,ms-l,mo-l,0,0,1,1,1,0,1,0,0,1,1,1,0,0
A3A07QA5U733HQ,English,34,male,control,control_why,31052,1,1,0,0,NA,NA,NA,NA,NA,NA,NA,0,1,1,1,0,1,0,0,1,1,1,0,0
A3A07QA5U733HQ,English,34,male,test,test_yarn,40229,1,1,1,0,Stalls D and E.,Stall A.,Stall E.,ms-l,mo-h,mo-l,0,1,1,0,1,0,1,0,1,1,0,1,0,0
A3A07QA5U733HQ,English,34,male,test,test_coffee,22164,1,1,1,0,Cafes D and E.,Cafe A.,Cafe E.,ms-l,mo-h,mo-l,0,1,1,0,1,0,1,0,1,1,0,1,0,0
A3A07QA5U733HQ,English,34,male,control,control_how,52583,0,1,0,0,NA,NA,NA,NA,NA,NA,NA,1,1,0,1,0,1,0,1,1,0,1,0,0
A3A07QA5U733HQ,English,34,male,test,test_books,22373,1,1,1,0,Bookstore E.,Bookstore A.,Bookstore F.,mo-l,mo-h,fa,0,1,1,0,0,0,1,0,1,1,0,0,0,0
A3A07QA5U733HQ,English,34,male,control,control_what,45178,1,1,0,0,NA,NA,NA,NA,NA,NA,NA,1,1,0,0,0,1,0,1,1,0,0,0,0
A3A07QA5U733HQ,English,34,male,test,test_dentist,25789,0,0,0,1,Dentist E.,Dentists A and B.,Dentists D and E.,mo-l,ms-h,ms-l,0,0,1,1,1,0,1,0,0,0,0,0,0,1
A3A07QA5U733HQ,English,34,male,test,test_hair,12572,1,1,1,0,Stylist E.,"Stylists A, B, C, D and E.",Stylists D and E.,mo-l,exh,ms-l,1,0,1,0,1,0,1,1,0,1,0,1,0,0
A3A07QA5U733HQ,English,34,male,control,control_when,53935,0,0,0,1,NA,NA,NA,NA,NA,NA,NA,0,1,0,1,0,1,1,0,1,0,1,0,0
A3A07QA5U733HQ,English,34,male,exit_quest,NA,63913,No%2C It's pretty much asking the same question.,No%2C it wasn't too difficult. It was kind of challenging but not too difficult.,No,NA,NA,NA,NA,NA,NA,NA,NA,NA,NA,NA,NA,NA,NA,NA,NA,NA,NA,NA,NA,NA
A3FY7A6Z3EVNRX,English ,40,female,consent,NA,25736,NA,NA,NA,NA,NA,NA,NA,NA,NA,NA,NA,NA,NA,NA,NA,NA,NA,NA,NA,NA,NA,NA,NA,NA
A3FY7A6Z3EVNRX,English ,40,female,train,train_f,36466,0,0,0,1,NA,NA,NA,NA,NA,NA,NA,NA,NA,NA,NA,NA,NA,NA,NA,NA,NA,NA,NA,NA
A3FY7A6Z3EVNRX,English ,40,female,train,train_m,44230,0,0,1,0,NA,NA,NA,NA,NA,NA,NA,NA,NA,NA,NA,NA,NA,NA,NA,NA,NA,NA,NA,NA
A3FY7A6Z3EVNRX,English ,40,female,test,test_coffee,55172,0,0,0,1,Cafes A and B.,Cafes D and E.,Cafe F.,ms-h,ms-l,fa,0,0,0,1,1,0,1,0,0,0,0,0,0,1
A3FY7A6Z3EVNRX,English ,40,female,control,control_why,26158,1,1,0,0,NA,NA,NA,NA,NA,NA,NA,0,0,1,1,0,1,0,0,0,0,0,0,1
A3FY7A6Z3EVNRX,English ,40,female,test,test_shoes,38057,0,0,0,1,Store A.,Stores D and E.,"Stores A, B, C, D and E.",mo-h,ms-l,exh,1,1,0,0,1,0,1,0,0,0,0,0,0,1
A3FY7A6Z3EVNRX,English ,40,female,test,test_yarn,17769,0,0,0,1,Stall F.,Stalls D and E.,Stall E.,fa,ms-l,mo-l,0,0,1,0,1,0,1,0,0,0,0,0,0,1
A3FY7A6Z3EVNRX,English ,40,female,control,control_how,25604,0,1,1,0,NA,NA,NA,NA,NA,NA,NA,0,1,0,1,0,1,0,0,0,0,0,0,1
A3FY7A6Z3EVNRX,English ,40,female,test,test_hair,16965,0,0,1,0,Stylists D and E.,Stylist E.,Stylist A.,ms-l,mo-l,mo-h,0,1,1,0,1,0,1,0,1,0,0,0,0,0
A3FY7A6Z3EVNRX,English ,40,female,control,control_when,29612,0,1,1,0,NA,NA,NA,NA,NA,NA,NA,1,1,0,1,0,1,0,1,0,0,0,0,0
A3FY7A6Z3EVNRX,English ,40,female,test,test_dentist,13613,0,0,0,1,Dentists D and E.,Dentist F.,"Dentists A, B, C, D and E.",ms-l,fa,exh,1,0,0,0,1,0,1,0,0,0,0,0,0,1
A3FY7A6Z3EVNRX,English ,40,female,test,test_books,21735,0,1,0,0,Bookstores D and E.,Bookstores A and B.,Bookstore E.,ms-l,ms-h,mo-l,0,0,1,1,1,0,1,0,0,0,1,0,0,0
A3FY7A6Z3EVNRX,English ,40,female,control,control_what,15388,1,0,0,0,NA,NA,NA,NA,NA,NA,NA,0,1,1,1,0,1,0,0,0,1,0,0,0
A3FY7A6Z3EVNRX,English ,40,female,exit_quest,NA,37058,Same question some same answer,No fairly straight forward,Nope,NA,NA,NA,NA,NA,NA,NA,NA,NA,NA,NA,NA,NA,NA,NA,NA,NA,NA,NA,NA,NA
A3SL5QRF7MX2P1,English,39,female,consent,NA,40955,NA,NA,NA,NA,NA,NA,NA,NA,NA,NA,NA,NA,NA,NA,NA,NA,NA,NA,NA,NA,NA,NA,NA,NA
A3SL5QRF7MX2P1,English,39,female,train,train_f,33997,0,0,0,1,NA,NA,NA,NA,NA,NA,NA,NA,NA,NA,NA,NA,NA,NA,NA,NA,NA,NA,NA,NA
A3SL5QRF7MX2P1,English,39,female,train,train_m,55849,0,0,1,0,NA,NA,NA,NA,NA,NA,NA,NA,NA,NA,NA,NA,NA,NA,NA,NA,NA,NA,NA,NA
A3SL5QRF7MX2P1,English,39,female,test,test_dentist,92366,0,0,0,1,Dentist E.,Dentists A and B.,Dentists D and E.,mo-l,ms-h,ms-l,0,0,1,1,1,0,1,0,0,0,0,0,0,1
A3SL5QRF7MX2P1,English,39,female,test,test_books,28999,0,0,0,1,Bookstores D and E.,Bookstore E.,Bookstores A and B.,ms-l,mo-l,ms-h,0,0,1,1,1,0,1,0,0,0,0,0,0,1
A3SL5QRF7MX2P1,English,39,female,control,control_what,23422,0,0,0,1,NA,NA,NA,NA,NA,NA,NA,0,1,1,1,0,1,0,0,0,0,0,0,1
A3SL5QRF7MX2P1,English,39,female,test,test_hair,20832,1,1,1,0,Stylists A and B.,Stylist A.,Stylists D and E.,ms-h,mo-h,ms-l,0,1,0,1,1,0,1,0,1,0,1,1,0,0
A3SL5QRF7MX2P1,English,39,female,control,control_when,53048,1,1,1,0,NA,NA,NA,NA,NA,NA,NA,1,0,1,1,0,1,0,1,0,1,1,0,0
A3SL5QRF7MX2P1,English,39,female,test,test_yarn,41461,1,1,1,0,Stalls D and E.,Stall A.,Stalls A and B.,ms-l,mo-h,ms-h,0,1,0,1,1,0,1,0,1,0,1,1,0,0
A3SL5QRF7MX2P1,English,39,female,test,test_shoes,5469,1,1,1,0,Store A.,"Stores A, B, C, D and E.",Stores A and B.,mo-h,exh,ms-h,1,1,0,1,0,0,1,1,1,0,1,0,0,0
A3SL5QRF7MX2P1,English,39,female,control,control_why,20397,1,1,0,0,NA,NA,NA,NA,NA,NA,NA,1,0,1,0,0,1,1,1,0,1,0,0,0
A3SL5QRF7MX2P1,English,39,female,test,test_coffee,6461,1,1,1,0,Cafe E.,Cafes D and E.,Cafes A and B.,mo-l,ms-l,ms-h,0,0,1,1,1,0,1,0,0,1,1,1,0,0
A3SL5QRF7MX2P1,English,39,female,control,control_how,43270,1,1,1,0,NA,NA,NA,NA,NA,NA,NA,0,1,1,1,0,1,0,0,1,1,1,0,0
A3SL5QRF7MX2P1,English,39,female,exit_quest,NA,33391,No.  I would answer the same because they are the same question.,no,no,NA,NA,NA,NA,NA,NA,NA,NA,NA,NA,NA,NA,NA,NA,NA,NA,NA,NA,NA,NA,NA
A31X9CV1UWZV8Z,English,35,female,consent,NA,40608,NA,NA,NA,NA,NA,NA,NA,NA,NA,NA,NA,NA,NA,NA,NA,NA,NA,NA,NA,NA,NA,NA,NA,NA
A31X9CV1UWZV8Z,English,35,female,train,train_m,44534,0,0,1,0,NA,NA,NA,NA,NA,NA,NA,NA,NA,NA,NA,NA,NA,NA,NA,NA,NA,NA,NA,NA
A31X9CV1UWZV8Z,English,35,female,train,train_f,36901,0,0,0,1,NA,NA,NA,NA,NA,NA,NA,NA,NA,NA,NA,NA,NA,NA,NA,NA,NA,NA,NA,NA
A31X9CV1UWZV8Z,English,35,female,test,test_yarn,59316,0,0,0,1,Stall E.,Stalls A and B.,"Stalls A, B, C, D and E.",mo-l,ms-h,exh,1,0,1,1,0,0,1,0,0,0,0,0,0,1
A31X9CV1UWZV8Z,English,35,female,test,test_coffee,47385,1,1,1,0,Cafe A.,Cafes A and B.,Cafe F.,mo-h,ms-h,fa,0,1,0,1,0,0,1,0,1,0,1,0,0,0
A31X9CV1UWZV8Z,English,35,female,control,control_what,31388,1,0,0,0,NA,NA,NA,NA,NA,NA,NA,1,0,1,0,0,1,0,1,0,1,0,0,0
A31X9CV1UWZV8Z,English,35,female,test,test_dentist,29755,1,1,1,0,Dentists D and E.,Dentist E.,Dentist A.,ms-l,mo-l,mo-h,0,1,1,0,1,0,1,0,1,1,0,1,0,0
A31X9CV1UWZV8Z,English,35,female,test,test_hair,29417,1,1,1,0,Stylist E.,Stylist A.,Stylists D and E.,mo-l,mo-h,ms-l,0,1,1,0,1,0,1,0,1,1,0,1,0,0
A31X9CV1UWZV8Z,English,35,female,control,control_why,41075,0,0,0,1,NA,NA,NA,NA,NA,NA,NA,1,1,0,1,0,1,0,1,1,0,1,0,0
A31X9CV1UWZV8Z,English,35,female,test,test_books,17984,0,0,0,1,Bookstores D and E.,Bookstore F.,Bookstore E.,ms-l,fa,mo-l,0,0,1,0,1,0,1,0,0,0,0,0,0,1
A31X9CV1UWZV8Z,English,35,female,control,control_how,49355,0,1,1,0,NA,NA,NA,NA,NA,NA,NA,0,1,0,1,0,1,0,0,0,0,0,0,1
A31X9CV1UWZV8Z,English,35,female,test,test_shoes,17418,0,0,0,1,Store A.,Store E.,Stores D and E.,mo-h,mo-l,ms-l,0,1,1,0,1,0,1,0,0,0,0,0,0,1
A31X9CV1UWZV8Z,English,35,female,control,control_when,55713,1,1,1,0,NA,NA,NA,NA,NA,NA,NA,1,1,0,1,0,1,0,0,0,0,0,0,1
A31X9CV1UWZV8Z,English,35,female,exit_quest,NA,42552,No%2C I would answer the same way.,A little bit%2C based on the phrasing of questions.,No.,NA,NA,NA,NA,NA,NA,NA,NA,NA,NA,NA,NA,NA,NA,NA,NA,NA,NA,NA,NA,NA
A28Q4YJSLGWCL5,English,62,female,consent,NA,41137,NA,NA,NA,NA,NA,NA,NA,NA,NA,NA,NA,NA,NA,NA,NA,NA,NA,NA,NA,NA,NA,NA,NA,NA
A28Q4YJSLGWCL5,English,62,female,train,train_m,55867,0,0,1,0,NA,NA,NA,NA,NA,NA,NA,NA,NA,NA,NA,NA,NA,NA,NA,NA,NA,NA,NA,NA
A28Q4YJSLGWCL5,English,62,female,train,train_f,54213,0,0,0,1,NA,NA,NA,NA,NA,NA,NA,NA,NA,NA,NA,NA,NA,NA,NA,NA,NA,NA,NA,NA
A28Q4YJSLGWCL5,English,62,female,test,test_books,51096,0,0,0,1,Bookstores D and E.,Bookstores A and B.,Bookstore A.,ms-l,ms-h,mo-h,0,1,0,1,1,0,1,0,0,0,0,0,0,1
A28Q4YJSLGWCL5,English,62,female,test,test_shoes,37439,0,0,0,1,Stores A and B.,Store A.,"Stores A, B, C, D and E.",ms-h,mo-h,exh,1,1,0,1,0,0,1,0,0,0,0,0,0,1
A28Q4YJSLGWCL5,English,62,female,control,control_why,40991,1,0,0,0,NA,NA,NA,NA,NA,NA,NA,1,0,1,0,0,1,0,0,0,0,0,0,1
A28Q4YJSLGWCL5,English,62,female,test,test_dentist,23859,0,0,0,1,Dentist A.,Dentist F.,"Dentists A, B, C, D and E.",mo-h,fa,exh,1,1,0,0,0,0,1,0,0,0,0,0,0,1
A28Q4YJSLGWCL5,English,62,female,control,control_what,27726,1,0,0,0,NA,NA,NA,NA,NA,NA,NA,1,0,0,0,0,1,0,0,0,0,0,0,1
A28Q4YJSLGWCL5,English,62,female,test,test_coffee,21037,0,0,0,1,Cafes D and E.,Cafe E.,Cafe F.,ms-l,mo-l,fa,0,0,1,0,1,0,1,0,0,0,0,0,0,1
A28Q4YJSLGWCL5,English,62,female,test,test_yarn,29425,0,0,0,1,Stalls A and B.,Stalls D and E.,"Stalls A, B, C, D and E.",ms-h,ms-l,exh,1,0,0,1,1,0,1,0,0,0,0,0,0,1
A28Q4YJSLGWCL5,English,62,female,control,control_how,33709,0,0,1,0,NA,NA,NA,NA,NA,NA,NA,0,0,1,1,0,1,0,0,0,0,0,0,1
A28Q4YJSLGWCL5,English,62,female,test,test_hair,26012,0,0,0,1,Stylist A.,Stylists A and B.,Stylist E.,mo-h,ms-h,mo-l,0,1,1,1,0,0,1,0,0,0,0,0,0,1
A28Q4YJSLGWCL5,English,62,female,control,control_when,45787,0,0,1,0,NA,NA,NA,NA,NA,NA,NA,1,1,1,0,0,1,0,0,0,0,0,0,1
A28Q4YJSLGWCL5,English,62,female,exit_quest,NA,86252,No. I think the answers to both question would be the same.,No. I just thought about whether or not the answer to the questions would be the same.,Interesting task!,NA,NA,NA,NA,NA,NA,NA,NA,NA,NA,NA,NA,NA,NA,NA,NA,NA,NA,NA,NA,NA
A2ZAORW27PCSU4,ENGLISH,27,female,consent,NA,26290,NA,NA,NA,NA,NA,NA,NA,NA,NA,NA,NA,NA,NA,NA,NA,NA,NA,NA,NA,NA,NA,NA,NA,NA
A2ZAORW27PCSU4,ENGLISH,27,female,train,train_m,7859,0,0,1,0,NA,NA,NA,NA,NA,NA,NA,NA,NA,NA,NA,NA,NA,NA,NA,NA,NA,NA,NA,NA
A2ZAORW27PCSU4,ENGLISH,27,female,train,train_f,10700,0,1,0,0,NA,NA,NA,NA,NA,NA,NA,NA,NA,NA,NA,NA,NA,NA,NA,NA,NA,NA,NA,NA
A2ZAORW27PCSU4,ENGLISH,27,female,test,test_coffee,2639,0,0,1,0,Cafes A and B.,Cafe E.,"Cafes A, B, C, D and E.",ms-h,mo-l,exh,1,0,1,1,0,0,1,1,0,0,0,0,0,0
A2ZAORW27PCSU4,ENGLISH,27,female,test,test_hair,3202,0,0,1,0,"Stylists A, B, C, D and E.",Stylists A and B.,Stylist E.,exh,ms-h,mo-l,1,0,1,1,0,0,1,0,0,1,0,0,0,0
A2ZAORW27PCSU4,ENGLISH,27,female,control,control_what,11595,0,0,0,1,NA,NA,NA,NA,NA,NA,NA,0,1,1,0,0,1,0,0,1,0,0,0,0
A2ZAORW27PCSU4,ENGLISH,27,female,test,test_shoes,1969,0,1,0,0,Stores D and E.,"Stores A, B, C, D and E.",Store F.,ms-l,exh,fa,1,0,0,0,1,0,1,1,0,0,0,0,0,0
A2ZAORW27PCSU4,ENGLISH,27,female,test,test_dentist,5473,0,0,1,0,Dentists A and B.,Dentist A.,Dentist E.,ms-h,mo-h,mo-l,0,1,1,1,0,0,1,0,0,1,0,0,0,0
A2ZAORW27PCSU4,ENGLISH,27,female,control,control_how,53016,0,1,0,0,NA,NA,NA,NA,NA,NA,NA,1,1,1,0,0,1,0,0,1,0,0,0,0
A2ZAORW27PCSU4,ENGLISH,27,female,test,test_books,4329,0,0,1,0,"Bookstores A, B, C, D and E.",Bookstores D and E.,Bookstores A and B.,exh,ms-l,ms-h,1,0,0,1,1,0,1,0,0,0,1,0,0,0
A2ZAORW27PCSU4,ENGLISH,27,female,control,control_when,3779,0,1,0,0,NA,NA,NA,NA,NA,NA,NA,0,0,1,1,0,1,0,0,0,1,0,0,0
A2ZAORW27PCSU4,ENGLISH,27,female,test,test_yarn,1897,0,1,0,0,Stall A.,"Stalls A, B, C, D and E.",Stalls D and E.,mo-h,exh,ms-l,1,1,0,0,1,0,1,1,0,0,0,0,0,0
A2ZAORW27PCSU4,ENGLISH,27,female,control,control_why,1955,0,1,0,0,NA,NA,NA,NA,NA,NA,NA,1,0,0,1,0,1,1,0,0,0,0,0,0
A2ZAORW27PCSU4,ENGLISH,27,female,exit_quest,NA,17034,GOOD KNOWLEGE,NO,NICE,NA,NA,NA,NA,NA,NA,NA,NA,NA,NA,NA,NA,NA,NA,NA,NA,NA,NA,NA,NA,NA
ALJ70B2J04YR7,English,50,female,consent,NA,69543,NA,NA,NA,NA,NA,NA,NA,NA,NA,NA,NA,NA,NA,NA,NA,NA,NA,NA,NA,NA,NA,NA,NA,NA
ALJ70B2J04YR7,English,50,female,train,train_m,46408,0,0,1,0,NA,NA,NA,NA,NA,NA,NA,NA,NA,NA,NA,NA,NA,NA,NA,NA,NA,NA,NA,NA
ALJ70B2J04YR7,English,50,female,train,train_f,41806,0,0,0,1,NA,NA,NA,NA,NA,NA,NA,NA,NA,NA,NA,NA,NA,NA,NA,NA,NA,NA,NA,NA
ALJ70B2J04YR7,English,50,female,test,test_dentist,63607,0,0,0,1,Dentists A and B.,Dentist A.,Dentists D and E.,ms-h,mo-h,ms-l,0,1,0,1,1,0,1,0,0,0,0,0,0,1
ALJ70B2J04YR7,English,50,female,test,test_hair,33728,0,0,0,1,Stylists A and B.,Stylist A.,Stylists D and E.,ms-h,mo-h,ms-l,0,1,0,1,1,0,1,0,0,0,0,0,0,1
ALJ70B2J04YR7,English,50,female,control,control_how,44351,0,1,1,0,NA,NA,NA,NA,NA,NA,NA,1,0,1,1,0,1,0,0,0,0,0,0,1
ALJ70B2J04YR7,English,50,female,test,test_yarn,30485,0,0,0,1,Stalls D and E.,Stall E.,Stalls A and B.,ms-l,mo-l,ms-h,0,0,1,1,1,0,1,0,0,0,0,0,0,1
ALJ70B2J04YR7,English,50,female,test,test_books,33447,0,0,0,1,Bookstores A and B.,Bookstores D and E.,Bookstore A.,ms-h,ms-l,mo-h,0,1,0,1,1,0,1,0,0,0,0,0,0,1
ALJ70B2J04YR7,English,50,female,control,control_when,49618,0,0,0,1,NA,NA,NA,NA,NA,NA,NA,1,0,1,1,0,1,0,0,0,0,0,0,1
ALJ70B2J04YR7,English,50,female,test,test_shoes,28904,0,0,0,1,Stores D and E.,Store E.,"Stores A, B, C, D and E.",ms-l,mo-l,exh,1,0,1,0,1,0,1,0,0,0,0,0,0,1
ALJ70B2J04YR7,English,50,female,control,control_why,42514,1,1,0,0,NA,NA,NA,NA,NA,NA,NA,0,1,0,1,0,1,0,0,0,0,0,0,1
ALJ70B2J04YR7,English,50,female,test,test_coffee,16446,0,0,0,1,Cafes D and E.,Cafe E.,Cafe A.,ms-l,mo-l,mo-h,0,1,1,0,1,0,1,0,0,0,0,0,0,1
ALJ70B2J04YR7,English,50,female,control,control_what,29041,0,0,0,1,NA,NA,NA,NA,NA,NA,NA,1,1,0,1,0,1,0,0,0,0,0,0,1
ALJ70B2J04YR7,English,50,female,exit_quest,NA,96588,No.  Both questions would propagate answers of restaurants that are located in town that serve a brunch.,Yes.  I thought I was fine until the Luke Skywalker question.  He answered correctly%2C but he didn't really KNOW.,,NA,NA,NA,NA,NA,NA,NA,NA,NA,NA,NA,NA,NA,NA,NA,NA,NA,NA,NA,NA,NA
AJW3PL5UDH4BP,English,35,male,consent,NA,26861,NA,NA,NA,NA,NA,NA,NA,NA,NA,NA,NA,NA,NA,NA,NA,NA,NA,NA,NA,NA,NA,NA,NA,NA
AJW3PL5UDH4BP,English,35,male,train,train_m,77767,0,0,1,0,NA,NA,NA,NA,NA,NA,NA,NA,NA,NA,NA,NA,NA,NA,NA,NA,NA,NA,NA,NA
AJW3PL5UDH4BP,English,35,male,train,train_f,61255,0,0,0,1,NA,NA,NA,NA,NA,NA,NA,NA,NA,NA,NA,NA,NA,NA,NA,NA,NA,NA,NA,NA
AJW3PL5UDH4BP,English,35,male,test,test_dentist,56649,0,0,0,1,Dentist E.,Dentists D and E.,Dentists A and B.,mo-l,ms-l,ms-h,0,0,1,1,1,0,1,0,0,0,0,0,0,1
AJW3PL5UDH4BP,English,35,male,test,test_yarn,35937,1,1,1,0,Stall A.,"Stalls A, B, C, D and E.",Stalls A and B.,mo-h,exh,ms-h,1,1,0,1,0,0,1,1,1,0,1,0,0,0
AJW3PL5UDH4BP,English,35,male,control,control_why,27458,1,1,0,0,NA,NA,NA,NA,NA,NA,NA,1,0,1,0,0,1,1,1,0,1,0,0,0
AJW3PL5UDH4BP,English,35,male,test,test_shoes,42060,1,0,0,0,Store A.,Stores D and E.,Store F.,mo-h,ms-l,fa,0,1,0,0,1,0,1,0,1,0,0,0,0,0
AJW3PL5UDH4BP,English,35,male,control,control_how,44789,0,0,0,0,NA,NA,NA,NA,NA,NA,NA,1,0,0,1,0,1,0,1,0,0,0,0,0
AJW3PL5UDH4BP,English,35,male,test,test_books,37904,1,0,0,0,Bookstores A and B.,Bookstore E.,Bookstores D and E.,ms-h,mo-l,ms-l,0,0,1,1,1,0,1,0,0,0,1,0,0,0
AJW3PL5UDH4BP,English,35,male,test,test_hair,25176,0,0,1,0,Stylists D and E.,"Stylists A, B, C, D and E.",Stylist A.,ms-l,exh,mo-h,1,1,0,0,1,0,1,0,1,0,0,0,0,0
AJW3PL5UDH4BP,English,35,male,control,control_when,63566,1,1,1,0,NA,NA,NA,NA,NA,NA,NA,1,0,0,1,0,1,0,1,0,0,0,0,0
AJW3PL5UDH4BP,English,35,male,test,test_coffee,12256,0,1,0,0,Cafes D and E.,Cafe A.,Cafe E.,ms-l,mo-h,mo-l,0,1,1,0,1,0,1,0,1,0,0,0,0,0
AJW3PL5UDH4BP,English,35,male,control,control_what,25995,1,0,0,0,NA,NA,NA,NA,NA,NA,NA,1,1,0,1,0,1,0,1,0,0,0,0,0
AJW3PL5UDH4BP,English,35,male,exit_quest,NA,78959,No%2C its a restatement of the same question.,a little%2C alot of reading small text,,NA,NA,NA,NA,NA,NA,NA,NA,NA,NA,NA,NA,NA,NA,NA,NA,NA,NA,NA,NA,NA
A3O6OQEIHB2MYB,English,34,male,consent,NA,72383,NA,NA,NA,NA,NA,NA,NA,NA,NA,NA,NA,NA,NA,NA,NA,NA,NA,NA,NA,NA,NA,NA,NA,NA
A3O6OQEIHB2MYB,English,34,male,train,train_f,47843,0,0,0,1,NA,NA,NA,NA,NA,NA,NA,NA,NA,NA,NA,NA,NA,NA,NA,NA,NA,NA,NA,NA
A3O6OQEIHB2MYB,English,34,male,train,train_m,52400,0,0,1,0,NA,NA,NA,NA,NA,NA,NA,NA,NA,NA,NA,NA,NA,NA,NA,NA,NA,NA,NA,NA
A3O6OQEIHB2MYB,English,34,male,test,test_shoes,50873,0,0,0,1,Store A.,Stores D and E.,Stores A and B.,mo-h,ms-l,ms-h,0,1,0,1,1,0,1,0,0,0,0,0,0,1
A3O6OQEIHB2MYB,English,34,male,test,test_dentist,90351,0,0,0,1,Dentist F.,Dentist E.,Dentists D and E.,fa,mo-l,ms-l,0,0,1,0,1,0,1,0,0,0,0,0,0,1
A3O6OQEIHB2MYB,English,34,male,control,control_what,37569,1,0,0,0,NA,NA,NA,NA,NA,NA,NA,0,1,0,1,0,1,0,0,0,0,0,0,1
A3O6OQEIHB2MYB,English,34,male,test,test_yarn,44071,0,1,0,0,Stalls D and E.,Stalls A and B.,Stall E.,ms-l,ms-h,mo-l,0,0,1,1,1,0,1,0,0,0,1,0,0,0
A3O6OQEIHB2MYB,English,34,male,test,test_books,45090,0,0,1,0,Bookstore F.,"Bookstores A, B, C, D and E.",Bookstores A and B.,fa,exh,ms-h,1,0,0,1,0,0,1,0,0,0,1,0,0,0
A3O6OQEIHB2MYB,English,34,male,control,control_how,30376,0,0,1,0,NA,NA,NA,NA,NA,NA,NA,0,0,1,0,0,1,0,0,0,1,0,0,0
A3O6OQEIHB2MYB,English,34,male,test,test_coffee,10849,0,0,1,0,Cafe E.,Cafes D and E.,Cafes A and B.,mo-l,ms-l,ms-h,0,0,1,1,1,0,1,0,0,0,1,0,0,0
A3O6OQEIHB2MYB,English,34,male,control,control_when,46037,0,0,1,0,NA,NA,NA,NA,NA,NA,NA,0,1,1,1,0,1,0,0,0,1,0,0,0
A3O6OQEIHB2MYB,English,34,male,test,test_hair,12318,0,0,1,0,"Stylists A, B, C, D and E.",Stylist F.,Stylists A and B.,exh,fa,ms-h,1,0,0,1,0,0,1,0,0,0,1,0,0,0
A3O6OQEIHB2MYB,English,34,male,control,control_why,28962,1,0,0,0,NA,NA,NA,NA,NA,NA,NA,0,0,1,0,0,1,0,0,0,1,0,0,0
A3O6OQEIHB2MYB,English,34,male,exit_quest,NA,50379,No its basically the same question.,Not at all. Just basic problem solving ,thank you!,NA,NA,NA,NA,NA,NA,NA,NA,NA,NA,NA,NA,NA,NA,NA,NA,NA,NA,NA,NA,NA
A3EN5H82IBTJGF,English,29,female,consent,NA,47580,NA,NA,NA,NA,NA,NA,NA,NA,NA,NA,NA,NA,NA,NA,NA,NA,NA,NA,NA,NA,NA,NA,NA,NA
A3EN5H82IBTJGF,English,29,female,train,train_f,43243,0,0,0,1,NA,NA,NA,NA,NA,NA,NA,NA,NA,NA,NA,NA,NA,NA,NA,NA,NA,NA,NA,NA
A3EN5H82IBTJGF,English,29,female,train,train_m,2275,0,0,0,0,NA,NA,NA,NA,NA,NA,NA,NA,NA,NA,NA,NA,NA,NA,NA,NA,NA,NA,NA,NA
A3EN5H82IBTJGF,English,29,female,test,test_yarn,46577,0,0,0,1,"Stalls A, B, C, D and E.",Stall A.,Stalls D and E.,exh,mo-h,ms-l,1,1,0,0,1,0,1,0,0,0,0,0,0,1
A3EN5H82IBTJGF,English,29,female,test,test_coffee,33068,0,0,0,1,"Cafes A, B, C, D and E.",Cafe E.,Cafes D and E.,exh,mo-l,ms-l,1,0,1,0,1,0,1,0,0,0,0,0,0,1
A3EN5H82IBTJGF,English,29,female,control,control_why,33429,0,1,0,0,NA,NA,NA,NA,NA,NA,NA,0,1,0,1,0,1,0,0,0,0,0,0,1
A3EN5H82IBTJGF,English,29,female,test,test_books,53456,1,1,1,0,Bookstores A and B.,"Bookstores A, B, C, D and E.",Bookstores D and E.,ms-h,exh,ms-l,1,0,0,1,1,0,1,1,0,0,1,1,0,0
A3EN5H82IBTJGF,English,29,female,control,control_when,54402,0,0,0,1,NA,NA,NA,NA,NA,NA,NA,0,0,1,1,0,1,1,0,0,1,1,0,0
A3EN5H82IBTJGF,English,29,female,test,test_shoes,40709,1,1,1,0,Store E.,Store A.,Store F.,mo-l,mo-h,fa,0,1,1,0,0,0,1,0,1,1,0,0,0,0
A3EN5H82IBTJGF,English,29,female,test,test_dentist,31216,1,1,1,0,Dentists A and B.,Dentist A.,Dentists D and E.,ms-h,mo-h,ms-l,0,1,0,1,1,0,1,0,1,0,1,1,0,0
A3EN5H82IBTJGF,English,29,female,control,control_what,29278,0,1,0,0,NA,NA,NA,NA,NA,NA,NA,1,0,1,1,0,1,0,1,0,1,1,0,0
A3EN5H82IBTJGF,English,29,female,test,test_hair,31576,1,1,1,0,"Stylists A, B, C, D and E.",Stylist E.,Stylist A.,exh,mo-l,mo-h,1,1,1,0,0,0,1,1,1,1,0,0,0,0
A3EN5H82IBTJGF,English,29,female,control,control_how,34380,0,1,1,0,NA,NA,NA,NA,NA,NA,NA,1,1,0,0,0,1,1,1,1,0,0,0,0
A3EN5H82IBTJGF,English,29,female,exit_quest,NA,153965,No. The questions have similar meaning to me.,Yes. Everyone knew pieces of I formation and almost no one knew the truth. So I could have checked all the boxes or no one and potentially have been correct.,Elaborate please. Instructions unclear when selecting. Like did not mention his father%2C did he know who he was?,NA,NA,NA,NA,NA,NA,NA,NA,NA,NA,NA,NA,NA,NA,NA,NA,NA,NA,NA,NA,NA
A2JS70VVJQW2GR,english,58,male,consent,NA,38071,NA,NA,NA,NA,NA,NA,NA,NA,NA,NA,NA,NA,NA,NA,NA,NA,NA,NA,NA,NA,NA,NA,NA,NA
A2JS70VVJQW2GR,english,58,male,train,train_f,69843,0,0,0,1,NA,NA,NA,NA,NA,NA,NA,NA,NA,NA,NA,NA,NA,NA,NA,NA,NA,NA,NA,NA
A2JS70VVJQW2GR,english,58,male,train,train_m,82495,0,0,0,1,NA,NA,NA,NA,NA,NA,NA,NA,NA,NA,NA,NA,NA,NA,NA,NA,NA,NA,NA,NA
A2JS70VVJQW2GR,english,58,male,test,test_hair,181011,1,1,1,0,Stylist F.,Stylist A.,Stylists A and B.,fa,mo-h,ms-h,0,1,0,1,0,0,1,0,1,0,1,0,0,0
A2JS70VVJQW2GR,english,58,male,control,control_how,72631,1,1,1,0,NA,NA,NA,NA,NA,NA,NA,1,0,1,0,0,1,0,1,0,1,0,0,0
A2JS70VVJQW2GR,english,58,male,test,test_books,47410,1,1,1,0,Bookstore F.,Bookstore A.,Bookstores D and E.,fa,mo-h,ms-l,0,1,0,0,1,0,1,0,1,0,0,1,0,0
A2JS70VVJQW2GR,english,58,male,test,test_dentist,38848,1,1,1,0,Dentists D and E.,Dentist E.,Dentist F.,ms-l,mo-l,fa,0,0,1,0,1,0,1,0,0,1,0,1,0,0
A2JS70VVJQW2GR,english,58,male,control,control_what,29845,1,1,1,0,NA,NA,NA,NA,NA,NA,NA,0,1,0,1,0,1,0,0,1,0,1,0,0
A2JS70VVJQW2GR,english,58,male,test,test_coffee,6429,1,1,1,0,Cafes D and E.,Cafe A.,Cafe F.,ms-l,mo-h,fa,0,1,0,0,1,0,1,0,1,0,0,1,0,0
A2JS70VVJQW2GR,english,58,male,control,control_why,19792,1,1,0,0,NA,NA,NA,NA,NA,NA,NA,1,0,0,1,0,1,0,1,0,0,1,0,0
A2JS70VVJQW2GR,english,58,male,test,test_yarn,13251,1,1,1,0,Stall A.,Stalls A and B.,Stalls D and E.,mo-h,ms-h,ms-l,0,1,0,1,1,0,1,0,1,0,1,1,0,0
A2JS70VVJQW2GR,english,58,male,test,test_shoes,33489,0,1,0,0,Store E.,Store A.,Stores A and B.,mo-l,mo-h,ms-h,0,1,1,1,0,0,1,0,1,0,0,0,0,0
A2JS70VVJQW2GR,english,58,male,control,control_when,50604,0,1,0,0,NA,NA,NA,NA,NA,NA,NA,1,1,1,0,0,1,0,1,0,0,0,0,0
A2JS70VVJQW2GR,english,58,male,exit_quest,NA,26600,,,,NA,NA,NA,NA,NA,NA,NA,NA,NA,NA,NA,NA,NA,NA,NA,NA,NA,NA,NA,NA,NA
A33UMG50QSJ7KS,english,28,female,consent,NA,44312,NA,NA,NA,NA,NA,NA,NA,NA,NA,NA,NA,NA,NA,NA,NA,NA,NA,NA,NA,NA,NA,NA,NA,NA
A33UMG50QSJ7KS,english,28,female,train,train_f,27460,0,0,0,1,NA,NA,NA,NA,NA,NA,NA,NA,NA,NA,NA,NA,NA,NA,NA,NA,NA,NA,NA,NA
A33UMG50QSJ7KS,english,28,female,train,train_m,29591,0,0,1,0,NA,NA,NA,NA,NA,NA,NA,NA,NA,NA,NA,NA,NA,NA,NA,NA,NA,NA,NA,NA
A33UMG50QSJ7KS,english,28,female,test,test_dentist,31380,0,0,0,1,Dentists A and B.,Dentist E.,Dentist F.,ms-h,mo-l,fa,0,0,1,1,0,0,1,0,0,0,0,0,0,1
A33UMG50QSJ7KS,english,28,female,test,test_books,25656,0,0,1,0,Bookstores D and E.,Bookstore F.,Bookstore A.,ms-l,fa,mo-h,0,1,0,0,1,0,1,0,1,0,0,0,0,0
A33UMG50QSJ7KS,english,28,female,control,control_why,42270,1,1,0,0,NA,NA,NA,NA,NA,NA,NA,1,0,0,1,0,1,0,1,0,0,0,0,0
A33UMG50QSJ7KS,english,28,female,test,test_hair,17837,1,1,1,0,"Stylists A, B, C, D and E.",Stylists D and E.,Stylist A.,exh,ms-l,mo-h,1,1,0,0,1,0,1,1,1,0,0,1,0,0
A33UMG50QSJ7KS,english,28,female,control,control_what,15169,1,1,0,0,NA,NA,NA,NA,NA,NA,NA,1,0,0,1,0,1,1,1,0,0,1,0,0
A33UMG50QSJ7KS,english,28,female,test,test_coffee,32654,1,1,1,0,Cafes D and E.,Cafe E.,Cafe F.,ms-l,mo-l,fa,0,0,1,0,1,0,1,0,0,1,0,1,0,0
A33UMG50QSJ7KS,english,28,female,test,test_shoes,13428,1,1,1,0,Store A.,Stores A and B.,Stores D and E.,mo-h,ms-h,ms-l,0,1,0,1,1,0,1,0,1,0,1,1,0,0
A33UMG50QSJ7KS,english,28,female,control,control_how,16156,0,1,1,0,NA,NA,NA,NA,NA,NA,NA,1,0,1,1,0,1,0,1,0,1,1,0,0
A33UMG50QSJ7KS,english,28,female,test,test_yarn,17181,1,1,1,0,Stalls A and B.,"Stalls A, B, C, D and E.",Stall A.,ms-h,exh,mo-h,1,1,0,1,0,0,1,1,1,0,1,0,0,0
A33UMG50QSJ7KS,english,28,female,control,control_when,26790,0,1,1,0,NA,NA,NA,NA,NA,NA,NA,1,0,1,0,0,1,1,1,0,1,0,0,0
A33UMG50QSJ7KS,english,28,female,exit_quest,NA,27773,No I wouldn't they both warrant the same answer,Lengthy,no,NA,NA,NA,NA,NA,NA,NA,NA,NA,NA,NA,NA,NA,NA,NA,NA,NA,NA,NA,NA,NA
A2PXJTMWGUE5DC,English,59,female,consent,NA,22919,NA,NA,NA,NA,NA,NA,NA,NA,NA,NA,NA,NA,NA,NA,NA,NA,NA,NA,NA,NA,NA,NA,NA,NA
A2PXJTMWGUE5DC,English,59,female,train,train_m,70703,0,0,1,0,NA,NA,NA,NA,NA,NA,NA,NA,NA,NA,NA,NA,NA,NA,NA,NA,NA,NA,NA,NA
A2PXJTMWGUE5DC,English,59,female,train,train_f,46829,0,0,0,1,NA,NA,NA,NA,NA,NA,NA,NA,NA,NA,NA,NA,NA,NA,NA,NA,NA,NA,NA,NA
A2PXJTMWGUE5DC,English,59,female,test,test_dentist,94882,0,0,0,1,Dentists A and B.,Dentist A.,"Dentists A, B, C, D and E.",ms-h,mo-h,exh,1,1,0,1,0,0,1,0,0,0,0,0,0,1
A2PXJTMWGUE5DC,English,59,female,test,test_coffee,49818,1,1,1,0,Cafes D and E.,Cafe E.,Cafe A.,ms-l,mo-l,mo-h,0,1,1,0,1,0,1,0,1,1,0,1,0,0
A2PXJTMWGUE5DC,English,59,female,control,control_when,41990,0,0,0,1,NA,NA,NA,NA,NA,NA,NA,1,1,0,1,0,1,0,1,1,0,1,0,0
A2PXJTMWGUE5DC,English,59,female,test,test_hair,40801,1,1,1,0,Stylist A.,Stylist F.,Stylists D and E.,mo-h,fa,ms-l,0,1,0,0,1,0,1,0,1,0,0,1,0,0
A2PXJTMWGUE5DC,English,59,female,test,test_yarn,60825,1,1,1,0,Stall F.,Stalls D and E.,"Stalls A, B, C, D and E.",fa,ms-l,exh,1,0,0,0,1,0,1,1,0,0,0,1,0,0
A2PXJTMWGUE5DC,English,59,female,control,control_how,48359,0,1,1,0,NA,NA,NA,NA,NA,NA,NA,0,0,0,1,0,1,1,0,0,0,1,0,0
A2PXJTMWGUE5DC,English,59,female,test,test_books,82146,0,0,0,1,Bookstore E.,Bookstores A and B.,"Bookstores A, B, C, D and E.",mo-l,ms-h,exh,1,0,1,1,0,0,1,0,0,0,0,0,0,1
A2PXJTMWGUE5DC,English,59,female,control,control_why,48261,1,0,0,0,NA,NA,NA,NA,NA,NA,NA,0,1,1,0,0,1,0,0,0,0,0,0,1
A2PXJTMWGUE5DC,English,59,female,test,test_shoes,50109,1,1,1,0,Store A.,Store E.,Stores A and B.,mo-h,mo-l,ms-h,0,1,1,1,0,0,1,0,1,1,1,0,0,0
A2PXJTMWGUE5DC,English,59,female,control,control_what,31956,0,0,0,1,NA,NA,NA,NA,NA,NA,NA,1,1,1,0,0,1,0,1,1,1,0,0,0
A2PXJTMWGUE5DC,English,59,female,exit_quest,NA,92071,No%2C I think those are the same question. They both are asking where brunch is served.,Some of it was difficult and a little confusing because of the slight different way the stories were phrased.,Thank you.,NA,NA,NA,NA,NA,NA,NA,NA,NA,NA,NA,NA,NA,NA,NA,NA,NA,NA,NA,NA,NA
A1B84JJ7ATWVJA,English,49,male,consent,NA,36523,NA,NA,NA,NA,NA,NA,NA,NA,NA,NA,NA,NA,NA,NA,NA,NA,NA,NA,NA,NA,NA,NA,NA,NA
A1B84JJ7ATWVJA,English,49,male,train,train_m,48573,0,1,1,0,NA,NA,NA,NA,NA,NA,NA,NA,NA,NA,NA,NA,NA,NA,NA,NA,NA,NA,NA,NA
A1B84JJ7ATWVJA,English,49,male,train,train_f,42661,0,0,0,1,NA,NA,NA,NA,NA,NA,NA,NA,NA,NA,NA,NA,NA,NA,NA,NA,NA,NA,NA,NA
A1B84JJ7ATWVJA,English,49,male,test,test_dentist,82308,0,0,0,1,Dentists A and B.,Dentist E.,Dentists D and E.,ms-h,mo-l,ms-l,0,0,1,1,1,0,1,0,0,0,0,0,0,1
A1B84JJ7ATWVJA,English,49,male,test,test_yarn,95075,1,1,1,0,Stall A.,"Stalls A, B, C, D and E.",Stall E.,mo-h,exh,mo-l,1,1,1,0,0,0,1,1,1,1,0,0,0,0
A1B84JJ7ATWVJA,English,49,male,control,control_what,46487,1,0,0,0,NA,NA,NA,NA,NA,NA,NA,1,1,0,0,0,1,1,1,1,0,0,0,0
A1B84JJ7ATWVJA,English,49,male,test,test_books,58352,0,0,0,1,Bookstore E.,"Bookstores A, B, C, D and E.",Bookstores D and E.,mo-l,exh,ms-l,1,0,1,0,1,0,1,0,0,0,0,0,0,1
A1B84JJ7ATWVJA,English,49,male,test,test_hair,24717,1,1,1,0,Stylist E.,Stylist A.,"Stylists A, B, C, D and E.",mo-l,mo-h,exh,1,1,1,0,0,0,1,1,1,1,0,0,0,0
A1B84JJ7ATWVJA,English,49,male,control,control_how,84885,0,1,1,0,NA,NA,NA,NA,NA,NA,NA,1,1,0,0,0,1,1,1,1,0,0,0,0
A1B84JJ7ATWVJA,English,49,male,test,test_coffee,53028,0,0,0,1,Cafes A and B.,Cafe A.,"Cafes A, B, C, D and E.",ms-h,mo-h,exh,1,1,0,1,0,0,1,0,0,0,0,0,0,1
A1B84JJ7ATWVJA,English,49,male,control,control_when,49198,0,0,0,1,NA,NA,NA,NA,NA,NA,NA,1,0,1,0,0,1,0,0,0,0,0,0,1
A1B84JJ7ATWVJA,English,49,male,test,test_shoes,28446,1,1,1,0,Stores D and E.,Stores A and B.,Store A.,ms-l,ms-h,mo-h,0,1,0,1,1,0,1,0,1,0,1,1,0,0
A1B84JJ7ATWVJA,English,49,male,control,control_why,39444,1,1,0,0,NA,NA,NA,NA,NA,NA,NA,1,0,1,1,0,1,0,1,0,1,1,0,0
A1B84JJ7ATWVJA,English,49,male,exit_quest,NA,80132,No%2C both questions are the same ,a little%2C need to read very carefully,,NA,NA,NA,NA,NA,NA,NA,NA,NA,NA,NA,NA,NA,NA,NA,NA,NA,NA,NA,NA,NA
ADGH08WUP68ZF,English,24,female,consent,NA,38942,NA,NA,NA,NA,NA,NA,NA,NA,NA,NA,NA,NA,NA,NA,NA,NA,NA,NA,NA,NA,NA,NA,NA,NA
ADGH08WUP68ZF,English,24,female,train,train_m,25924,0,0,1,0,NA,NA,NA,NA,NA,NA,NA,NA,NA,NA,NA,NA,NA,NA,NA,NA,NA,NA,NA,NA
ADGH08WUP68ZF,English,24,female,train,train_f,22380,0,0,0,1,NA,NA,NA,NA,NA,NA,NA,NA,NA,NA,NA,NA,NA,NA,NA,NA,NA,NA,NA,NA
ADGH08WUP68ZF,English,24,female,test,test_hair,29700,1,1,1,0,Stylists A and B.,Stylist F.,Stylists D and E.,ms-h,fa,ms-l,0,0,0,1,1,0,1,0,0,0,1,1,0,0
ADGH08WUP68ZF,English,24,female,test,test_coffee,54053,0,0,0,1,Cafes A and B.,Cafe E.,Cafes D and E.,ms-h,mo-l,ms-l,0,0,1,1,1,0,1,0,0,0,0,0,0,1
ADGH08WUP68ZF,English,24,female,control,control_how,23699,0,0,1,0,NA,NA,NA,NA,NA,NA,NA,0,1,1,1,0,1,0,0,0,0,0,0,1
ADGH08WUP68ZF,English,24,female,test,test_books,23361,0,0,0,1,Bookstore A.,Bookstore F.,Bookstore E.,mo-h,fa,mo-l,0,1,1,0,0,0,1,0,0,0,0,0,0,1
ADGH08WUP68ZF,English,24,female,control,control_when,28262,0,0,1,0,NA,NA,NA,NA,NA,NA,NA,1,1,0,0,0,1,0,0,0,0,0,0,1
ADGH08WUP68ZF,English,24,female,test,test_shoes,34543,0,0,0,1,Store F.,Store E.,Store A.,fa,mo-l,mo-h,0,1,1,0,0,0,1,0,0,0,0,0,0,1
ADGH08WUP68ZF,English,24,female,test,test_dentist,17827,0,0,0,1,Dentists D and E.,"Dentists A, B, C, D and E.",Dentist A.,ms-l,exh,mo-h,1,1,0,0,1,0,1,0,0,0,0,0,0,1
ADGH08WUP68ZF,English,24,female,control,control_why,40953,1,0,0,0,NA,NA,NA,NA,NA,NA,NA,1,0,0,1,0,1,0,0,0,0,0,0,1
ADGH08WUP68ZF,English,24,female,test,test_yarn,30967,0,0,0,1,Stalls D and E.,Stall E.,Stall A.,ms-l,mo-l,mo-h,0,1,1,0,1,0,1,0,0,0,0,0,0,1
ADGH08WUP68ZF,English,24,female,control,control_what,22875,1,0,0,0,NA,NA,NA,NA,NA,NA,NA,1,1,0,1,0,1,0,0,0,0,0,0,1
ADGH08WUP68ZF,English,24,female,exit_quest,NA,64794,I would give the same answers for each question due to the meaning of the question being the same in both questions.,Sort of yes%2C because some answers seemed ambiguous ,no,NA,NA,NA,NA,NA,NA,NA,NA,NA,NA,NA,NA,NA,NA,NA,NA,NA,NA,NA,NA,NA
A2U0XDH72EN978,english,32,female,consent,NA,28873,NA,NA,NA,NA,NA,NA,NA,NA,NA,NA,NA,NA,NA,NA,NA,NA,NA,NA,NA,NA,NA,NA,NA,NA
A2U0XDH72EN978,english,32,female,train,train_f,41879,0,0,0,1,NA,NA,NA,NA,NA,NA,NA,NA,NA,NA,NA,NA,NA,NA,NA,NA,NA,NA,NA,NA
A2U0XDH72EN978,english,32,female,train,train_m,39621,0,0,1,0,NA,NA,NA,NA,NA,NA,NA,NA,NA,NA,NA,NA,NA,NA,NA,NA,NA,NA,NA,NA
A2U0XDH72EN978,english,32,female,test,test_coffee,40749,1,0,0,0,Cafe A.,Cafe F.,Cafe E.,mo-h,fa,mo-l,0,1,1,0,0,0,1,0,1,0,0,0,0,0
A2U0XDH72EN978,english,32,female,control,control_when,44535,0,0,1,0,NA,NA,NA,NA,NA,NA,NA,1,1,0,0,0,1,0,1,0,0,0,0,0
A2U0XDH72EN978,english,32,female,test,test_books,32854,1,0,1,0,Bookstore A.,Bookstores D and E.,Bookstores A and B.,mo-h,ms-l,ms-h,0,1,0,1,1,0,1,0,1,0,1,0,0,0
A2U0XDH72EN978,english,32,female,test,test_dentist,24885,0,0,0,1,Dentists D and E.,Dentist E.,Dentist F.,ms-l,mo-l,fa,0,0,1,0,1,0,1,0,0,0,0,0,0,1
A2U0XDH72EN978,english,32,female,control,control_what,22406,1,0,0,0,NA,NA,NA,NA,NA,NA,NA,0,1,0,1,0,1,0,0,0,0,0,0,1
A2U0XDH72EN978,english,32,female,test,test_yarn,24158,1,0,0,0,Stalls A and B.,Stall E.,Stalls D and E.,ms-h,mo-l,ms-l,0,0,1,1,1,0,1,0,0,0,1,0,0,0
A2U0XDH72EN978,english,32,female,control,control_why,44583,1,1,0,0,NA,NA,NA,NA,NA,NA,NA,0,1,1,1,0,1,0,0,0,1,0,0,0
A2U0XDH72EN978,english,32,female,test,test_hair,22526,1,0,0,0,Stylists A and B.,Stylists D and E.,Stylist F.,ms-h,ms-l,fa,0,0,0,1,1,0,1,0,0,0,1,0,0,0
A2U0XDH72EN978,english,32,female,test,test_shoes,15270,1,1,0,0,Store A.,Stores A and B.,Store E.,mo-h,ms-h,mo-l,0,1,1,1,0,0,1,0,1,0,1,0,0,0
A2U0XDH72EN978,english,32,female,control,control_how,28798,0,1,1,0,NA,NA,NA,NA,NA,NA,NA,1,1,1,0,0,1,0,1,0,1,0,0,0
A2U0XDH72EN978,english,32,female,exit_quest,NA,94038,yes%2C the second question is better worded to get the best results. I feel like the first questions will result in a lot of restaurant showings while the second question will result in restaurants that serve brunch. ,no%2C I thought it was fun!,thank you,NA,NA,NA,NA,NA,NA,NA,NA,NA,NA,NA,NA,NA,NA,NA,NA,NA,NA,NA,NA,NA
A1Y82LKWQQP90M,English,31,female,consent,NA,149070,NA,NA,NA,NA,NA,NA,NA,NA,NA,NA,NA,NA,NA,NA,NA,NA,NA,NA,NA,NA,NA,NA,NA,NA
A1Y82LKWQQP90M,English,31,female,train,train_m,81400,0,0,1,0,NA,NA,NA,NA,NA,NA,NA,NA,NA,NA,NA,NA,NA,NA,NA,NA,NA,NA,NA,NA
A1Y82LKWQQP90M,English,31,female,train,train_f,49452,0,0,0,1,NA,NA,NA,NA,NA,NA,NA,NA,NA,NA,NA,NA,NA,NA,NA,NA,NA,NA,NA,NA
A1Y82LKWQQP90M,English,31,female,test,test_shoes,59849,0,0,0,1,"Stores A, B, C, D and E.",Stores D and E.,Stores A and B.,exh,ms-l,ms-h,1,0,0,1,1,0,1,0,0,0,0,0,0,1
A1Y82LKWQQP90M,English,31,female,test,test_dentist,120249,1,1,1,0,Dentist A.,Dentists D and E.,Dentist E.,mo-h,ms-l,mo-l,0,1,1,0,1,0,1,0,1,1,0,1,0,0
A1Y82LKWQQP90M,English,31,female,control,control_what,30194,1,0,0,0,NA,NA,NA,NA,NA,NA,NA,1,1,0,1,0,1,0,1,1,0,1,0,0
A1Y82LKWQQP90M,English,31,female,test,test_hair,45470,1,1,1,0,Stylists D and E.,Stylist A.,"Stylists A, B, C, D and E.",ms-l,mo-h,exh,1,1,0,0,1,0,1,1,1,0,0,1,0,0
A1Y82LKWQQP90M,English,31,female,test,test_yarn,62097,0,0,0,1,"Stalls A, B, C, D and E.",Stalls A and B.,Stall F.,exh,ms-h,fa,1,0,0,1,0,0,1,0,0,0,0,0,0,1
A1Y82LKWQQP90M,English,31,female,control,control_when,66416,0,0,1,0,NA,NA,NA,NA,NA,NA,NA,0,0,1,0,0,1,0,0,0,0,0,0,1
A1Y82LKWQQP90M,English,31,female,test,test_coffee,38508,1,1,1,0,Cafe A.,"Cafes A, B, C, D and E.",Cafe E.,mo-h,exh,mo-l,1,1,1,0,0,0,1,1,1,1,0,0,0,0
A1Y82LKWQQP90M,English,31,female,control,control_how,84000,0,1,0,1,NA,NA,NA,NA,NA,NA,NA,1,1,0,0,0,1,1,1,1,0,0,0,0
A1Y82LKWQQP90M,English,31,female,test,test_books,16421,0,0,0,1,Bookstore E.,Bookstores D and E.,Bookstores A and B.,mo-l,ms-l,ms-h,0,0,1,1,1,0,1,0,0,0,0,0,0,1
A1Y82LKWQQP90M,English,31,female,control,control_why,30489,0,0,0,1,NA,NA,NA,NA,NA,NA,NA,0,1,1,1,0,1,0,0,0,0,0,0,1
A1Y82LKWQQP90M,English,31,female,exit_quest,NA,76911,NO. It's basically the same question and will render the same results.,No just tedious.,No,NA,NA,NA,NA,NA,NA,NA,NA,NA,NA,NA,NA,NA,NA,NA,NA,NA,NA,NA,NA,NA
A2N2GFB33ZMYGF,English,36,male,consent,NA,45092,NA,NA,NA,NA,NA,NA,NA,NA,NA,NA,NA,NA,NA,NA,NA,NA,NA,NA,NA,NA,NA,NA,NA,NA
A2N2GFB33ZMYGF,English,36,male,train,train_m,91846,0,0,1,0,NA,NA,NA,NA,NA,NA,NA,NA,NA,NA,NA,NA,NA,NA,NA,NA,NA,NA,NA,NA
A2N2GFB33ZMYGF,English,36,male,train,train_f,54205,0,0,0,1,NA,NA,NA,NA,NA,NA,NA,NA,NA,NA,NA,NA,NA,NA,NA,NA,NA,NA,NA,NA
A2N2GFB33ZMYGF,English,36,male,test,test_shoes,106758,1,1,1,0,Stores D and E.,Store A.,Store E.,ms-l,mo-h,mo-l,0,1,1,0,1,0,1,0,1,1,0,1,0,0
A2N2GFB33ZMYGF,English,36,male,test,test_books,53454,1,1,0,0,Bookstores A and B.,Bookstore A.,Bookstore F.,ms-h,mo-h,fa,0,1,0,1,0,0,1,0,1,0,1,0,0,0
A2N2GFB33ZMYGF,English,36,male,control,control_when,65351,0,0,0,1,NA,NA,NA,NA,NA,NA,NA,1,0,1,0,0,1,0,1,0,1,0,0,0
A2N2GFB33ZMYGF,English,36,male,test,test_coffee,30334,0,1,0,0,"Cafes A, B, C, D and E.",Cafe A.,Cafe E.,exh,mo-h,mo-l,1,1,1,0,0,0,1,0,1,0,0,0,0,0
A2N2GFB33ZMYGF,English,36,male,control,control_what,40584,1,0,0,0,NA,NA,NA,NA,NA,NA,NA,1,1,0,0,0,1,0,1,0,0,0,0,0
A2N2GFB33ZMYGF,English,36,male,test,test_hair,31463,0,1,0,0,Stylists D and E.,Stylist A.,Stylists A and B.,ms-l,mo-h,ms-h,0,1,0,1,1,0,1,0,1,0,0,0,0,0
A2N2GFB33ZMYGF,English,36,male,test,test_dentist,39590,0,0,0,1,Dentists D and E.,Dentists A and B.,Dentist A.,ms-l,ms-h,mo-h,0,1,0,1,1,0,1,0,0,0,0,0,0,1
A2N2GFB33ZMYGF,English,36,male,control,control_how,56072,0,1,0,0,NA,NA,NA,NA,NA,NA,NA,1,0,1,1,0,1,0,0,0,0,0,0,1
A2N2GFB33ZMYGF,English,36,male,test,test_yarn,35935,0,1,0,0,Stall F.,Stall A.,Stalls A and B.,fa,mo-h,ms-h,0,1,0,1,0,0,1,0,1,0,0,0,0,0
A2N2GFB33ZMYGF,English,36,male,control,control_why,39727,0,0,1,0,NA,NA,NA,NA,NA,NA,NA,1,0,1,0,0,1,0,1,0,0,0,0,0
A2N2GFB33ZMYGF,English,36,male,exit_quest,NA,82887,Yes%2C the first on I would give a list. The second one I would give my recommendation.,Yes%2C Some of the questions were tricky.,None.,NA,NA,NA,NA,NA,NA,NA,NA,NA,NA,NA,NA,NA,NA,NA,NA,NA,NA,NA,NA,NA
A1BBZ5EMNSCZJR,English,49,male,consent,NA,51942,NA,NA,NA,NA,NA,NA,NA,NA,NA,NA,NA,NA,NA,NA,NA,NA,NA,NA,NA,NA,NA,NA,NA,NA
A1BBZ5EMNSCZJR,English,49,male,train,train_m,21680,0,0,0,1,NA,NA,NA,NA,NA,NA,NA,NA,NA,NA,NA,NA,NA,NA,NA,NA,NA,NA,NA,NA
A1BBZ5EMNSCZJR,English,49,male,train,train_f,36682,1,1,0,0,NA,NA,NA,NA,NA,NA,NA,NA,NA,NA,NA,NA,NA,NA,NA,NA,NA,NA,NA,NA
A1BBZ5EMNSCZJR,English,49,male,test,test_yarn,32523,0,0,1,0,Stall F.,"Stalls A, B, C, D and E.",Stall A.,fa,exh,mo-h,1,1,0,0,0,0,1,0,1,0,0,0,0,0
A1BBZ5EMNSCZJR,English,49,male,test,test_books,23376,0,0,0,1,"Bookstores A, B, C, D and E.",Bookstore F.,Bookstores A and B.,exh,fa,ms-h,1,0,0,1,0,0,1,0,0,0,0,0,0,1
A1BBZ5EMNSCZJR,English,49,male,control,control_what,26178,1,0,0,0,NA,NA,NA,NA,NA,NA,NA,0,0,1,0,0,1,0,0,0,0,0,0,1
A1BBZ5EMNSCZJR,English,49,male,test,test_dentist,10768,0,1,0,0,Dentists D and E.,Dentist E.,Dentist F.,ms-l,mo-l,fa,0,0,1,0,1,0,1,0,0,1,0,0,0,0
A1BBZ5EMNSCZJR,English,49,male,control,control_why,23552,0,1,0,0,NA,NA,NA,NA,NA,NA,NA,0,1,0,1,0,1,0,0,1,0,0,0,0
A1BBZ5EMNSCZJR,English,49,male,test,test_shoes,43269,0,0,1,0,Store E.,"Stores A, B, C, D and E.",Store A.,mo-l,exh,mo-h,1,1,1,0,0,0,1,0,1,0,0,0,0,0
A1BBZ5EMNSCZJR,English,49,male,test,test_hair,86149,1,0,0,0,Stylist F.,Stylist A.,"Stylists A, B, C, D and E.",fa,mo-h,exh,1,1,0,0,0,0,1,0,0,0,0,0,0,0
A1BBZ5EMNSCZJR,English,49,male,control,control_when,84358,0,1,0,0,NA,NA,NA,NA,NA,NA,NA,1,0,0,0,0,1,0,0,0,0,0,0,0
A1BBZ5EMNSCZJR,English,49,male,test,test_coffee,185076,1,0,0,0,Cafes D and E.,Cafes A and B.,Cafe E.,ms-l,ms-h,mo-l,0,0,1,1,1,0,1,0,0,0,0,1,0,0
A1BBZ5EMNSCZJR,English,49,male,control,control_how,33552,0,0,0,1,NA,NA,NA,NA,NA,NA,NA,0,1,1,1,0,1,0,0,0,0,1,0,0
A1BBZ5EMNSCZJR,English,49,male,exit_quest,NA,125779,No%2C if I don't I wouldn't unless I know something else was better.,If you don't know the area and you didn't do any research it would be hard to know this.,Location facts%2C and details.,NA,NA,NA,NA,NA,NA,NA,NA,NA,NA,NA,NA,NA,NA,NA,NA,NA,NA,NA,NA,NA
a2ytqdlactliba,english,63,female,consent,NA,44382,NA,NA,NA,NA,NA,NA,NA,NA,NA,NA,NA,NA,NA,NA,NA,NA,NA,NA,NA,NA,NA,NA,NA,NA
a2ytqdlactliba,english,63,female,train,train_m,40195,0,0,1,0,NA,NA,NA,NA,NA,NA,NA,NA,NA,NA,NA,NA,NA,NA,NA,NA,NA,NA,NA,NA
a2ytqdlactliba,english,63,female,train,train_f,66547,0,0,0,1,NA,NA,NA,NA,NA,NA,NA,NA,NA,NA,NA,NA,NA,NA,NA,NA,NA,NA,NA,NA
a2ytqdlactliba,english,63,female,test,test_books,60427,0,1,1,0,Bookstore E.,Bookstore A.,Bookstores A and B.,mo-l,mo-h,ms-h,0,1,1,1,0,0,1,0,1,0,1,0,0,0
a2ytqdlactliba,english,63,female,test,test_hair,44644,1,1,1,0,Stylists D and E.,Stylist A.,Stylists A and B.,ms-l,mo-h,ms-h,0,1,0,1,1,0,1,0,1,0,1,1,0,0
a2ytqdlactliba,english,63,female,control,control_how,39558,0,1,1,0,NA,NA,NA,NA,NA,NA,NA,1,0,1,1,0,1,0,1,0,1,1,0,0
a2ytqdlactliba,english,63,female,test,test_coffee,29213,1,1,1,0,Cafe A.,Cafes A and B.,Cafes D and E.,mo-h,ms-h,ms-l,0,1,0,1,1,0,1,0,1,0,1,1,0,0
a2ytqdlactliba,english,63,female,control,control_what,22210,1,0,0,0,NA,NA,NA,NA,NA,NA,NA,1,0,1,1,0,1,0,1,0,1,1,0,0
a2ytqdlactliba,english,63,female,test,test_dentist,30350,0,0,0,1,Dentists A and B.,Dentist A.,Dentists D and E.,ms-h,mo-h,ms-l,0,1,0,1,1,0,1,0,0,0,0,0,0,1
a2ytqdlactliba,english,63,female,test,test_shoes,30037,0,0,1,0,Stores D and E.,"Stores A, B, C, D and E.",Store A.,ms-l,exh,mo-h,1,1,0,0,1,0,1,0,1,0,0,0,0,0
a2ytqdlactliba,english,63,female,control,control_why,26731,1,0,0,0,NA,NA,NA,NA,NA,NA,NA,1,0,0,1,0,1,0,1,0,0,0,0,0
a2ytqdlactliba,english,63,female,test,test_yarn,36019,0,0,0,1,Stalls D and E.,Stall F.,Stall E.,ms-l,fa,mo-l,0,0,1,0,1,0,1,0,0,0,0,0,0,1
a2ytqdlactliba,english,63,female,control,control_when,44455,0,0,1,0,NA,NA,NA,NA,NA,NA,NA,0,1,0,1,0,1,0,0,0,0,0,0,1
a2ytqdlactliba,english,63,female,exit_quest,NA,127256,No%2C I wouldn't answer differently because the result is the same%2C where is brunch in town a where ever there is brunch served anyone can go..,I was not difficult because it was straightforward.,no,NA,NA,NA,NA,NA,NA,NA,NA,NA,NA,NA,NA,NA,NA,NA,NA,NA,NA,NA,NA,NA
AF8OT1W25HEM7,English,26,female,consent,NA,32909,NA,NA,NA,NA,NA,NA,NA,NA,NA,NA,NA,NA,NA,NA,NA,NA,NA,NA,NA,NA,NA,NA,NA,NA
AF8OT1W25HEM7,English,26,female,train,train_m,50917,0,0,1,0,NA,NA,NA,NA,NA,NA,NA,NA,NA,NA,NA,NA,NA,NA,NA,NA,NA,NA,NA,NA
AF8OT1W25HEM7,English,26,female,train,train_f,56600,0,0,0,1,NA,NA,NA,NA,NA,NA,NA,NA,NA,NA,NA,NA,NA,NA,NA,NA,NA,NA,NA,NA
AF8OT1W25HEM7,English,26,female,test,test_shoes,66002,0,0,0,1,Stores A and B.,Store A.,Store F.,ms-h,mo-h,fa,0,1,0,1,0,0,1,0,0,0,0,0,0,1
AF8OT1W25HEM7,English,26,female,control,control_what,36253,1,0,0,0,NA,NA,NA,NA,NA,NA,NA,1,0,1,0,0,1,0,0,0,0,0,0,1
AF8OT1W25HEM7,English,26,female,test,test_hair,56148,0,0,0,1,"Stylists A, B, C, D and E.",Stylist A.,Stylists D and E.,exh,mo-h,ms-l,1,1,0,0,1,0,1,0,0,0,0,0,0,1
AF8OT1W25HEM7,English,26,female,test,test_dentist,42350,1,1,1,0,Dentist E.,Dentists A and B.,Dentist A.,mo-l,ms-h,mo-h,0,1,1,1,0,0,1,0,1,1,1,0,0,0
AF8OT1W25HEM7,English,26,female,control,control_why,67837,1,1,0,0,NA,NA,NA,NA,NA,NA,NA,1,1,1,0,0,1,0,1,1,1,0,0,0
AF8OT1W25HEM7,English,26,female,test,test_yarn,36964,1,1,1,0,Stalls D and E.,"Stalls A, B, C, D and E.",Stall E.,ms-l,exh,mo-l,1,0,1,0,1,0,1,1,0,1,0,1,0,0
AF8OT1W25HEM7,English,26,female,control,control_how,53133,0,1,0,0,NA,NA,NA,NA,NA,NA,NA,0,1,0,1,0,1,1,0,1,0,1,0,0
AF8OT1W25HEM7,English,26,female,test,test_coffee,37513,1,1,1,0,"Cafes A, B, C, D and E.",Cafe A.,Cafes D and E.,exh,mo-h,ms-l,1,1,0,0,1,0,1,1,1,0,0,1,0,0
AF8OT1W25HEM7,English,26,female,test,test_books,21226,1,1,1,0,Bookstore F.,Bookstore A.,"Bookstores A, B, C, D and E.",fa,mo-h,exh,1,1,0,0,0,0,1,1,1,0,0,0,0,0
AF8OT1W25HEM7,English,26,female,control,control_when,66945,0,0,1,0,NA,NA,NA,NA,NA,NA,NA,1,0,0,0,0,1,1,1,0,0,0,0,0
AF8OT1W25HEM7,English,26,female,exit_quest,NA,198335,No. I would answer the question the same because they’re essecentially the same question.,A little. Some of them were simple comprehension questions and others seemed like trick questions.,No.,NA,NA,NA,NA,NA,NA,NA,NA,NA,NA,NA,NA,NA,NA,NA,NA,NA,NA,NA,NA,NA
A96JK3576FXG5,english,24,male,consent,NA,87401,NA,NA,NA,NA,NA,NA,NA,NA,NA,NA,NA,NA,NA,NA,NA,NA,NA,NA,NA,NA,NA,NA,NA,NA
A96JK3576FXG5,english,24,male,train,train_m,237970,0,1,0,0,NA,NA,NA,NA,NA,NA,NA,NA,NA,NA,NA,NA,NA,NA,NA,NA,NA,NA,NA,NA
A96JK3576FXG5,english,24,male,train,train_f,16343,0,0,1,0,NA,NA,NA,NA,NA,NA,NA,NA,NA,NA,NA,NA,NA,NA,NA,NA,NA,NA,NA,NA
A96JK3576FXG5,english,24,male,test,test_hair,43455,0,1,0,0,"Stylists A, B, C, D and E.",Stylists A and B.,Stylist E.,exh,ms-h,mo-l,1,0,1,1,0,0,1,0,0,0,1,0,0,0
A96JK3576FXG5,english,24,male,test,test_shoes,5010,0,0,1,0,Store F.,Store E.,Store A.,fa,mo-l,mo-h,0,1,1,0,0,0,1,0,1,0,0,0,0,0
A96JK3576FXG5,english,24,male,control,control_what,8066,0,0,1,0,NA,NA,NA,NA,NA,NA,NA,1,1,0,0,0,1,0,1,0,0,0,0,0
A96JK3576FXG5,english,24,male,test,test_coffee,4499,0,0,1,0,Cafes D and E.,Cafe E.,Cafes A and B.,ms-l,mo-l,ms-h,0,0,1,1,1,0,1,0,0,0,1,0,0,0
A96JK3576FXG5,english,24,male,control,control_how,3842,0,0,1,0,NA,NA,NA,NA,NA,NA,NA,0,1,1,1,0,1,0,0,0,1,0,0,0
A96JK3576FXG5,english,24,male,test,test_dentist,2867,0,1,0,0,Dentists A and B.,Dentist E.,Dentists D and E.,ms-h,mo-l,ms-l,0,0,1,1,1,0,1,0,0,1,0,0,0,0
A96JK3576FXG5,english,24,male,test,test_yarn,2650,0,0,1,0,Stalls D and E.,"Stalls A, B, C, D and E.",Stall F.,ms-l,exh,fa,1,0,0,0,1,0,1,0,0,0,0,0,0,0
A96JK3576FXG5,english,24,male,control,control_when,2603,0,0,1,0,NA,NA,NA,NA,NA,NA,NA,0,0,0,1,0,1,0,0,0,0,0,0,0
A96JK3576FXG5,english,24,male,test,test_books,4898,0,0,1,0,Bookstore E.,Bookstores D and E.,Bookstore A.,mo-l,ms-l,mo-h,0,1,1,0,1,0,1,0,1,0,0,0,0,0
A96JK3576FXG5,english,24,male,control,control_why,2370,0,0,1,0,NA,NA,NA,NA,NA,NA,NA,1,1,0,1,0,1,0,1,0,0,0,0,0
A96JK3576FXG5,english,24,male,exit_quest,NA,81951,i would like to go for a walk,yes%2C there is a little difficult.,nice work %2C i do my level very best.,NA,NA,NA,NA,NA,NA,NA,NA,NA,NA,NA,NA,NA,NA,NA,NA,NA,NA,NA,NA,NA
A2YLK83DQ6PA5Y,English,41,male,consent,NA,110480,NA,NA,NA,NA,NA,NA,NA,NA,NA,NA,NA,NA,NA,NA,NA,NA,NA,NA,NA,NA,NA,NA,NA,NA
A2YLK83DQ6PA5Y,English,41,male,train,train_f,20995,0,0,0,1,NA,NA,NA,NA,NA,NA,NA,NA,NA,NA,NA,NA,NA,NA,NA,NA,NA,NA,NA,NA
A2YLK83DQ6PA5Y,English,41,male,train,train_m,16885,0,0,1,0,NA,NA,NA,NA,NA,NA,NA,NA,NA,NA,NA,NA,NA,NA,NA,NA,NA,NA,NA,NA
A2YLK83DQ6PA5Y,English,41,male,test,test_hair,21667,0,1,0,0,Stylist A.,"Stylists A, B, C, D and E.",Stylist E.,mo-h,exh,mo-l,1,1,1,0,0,0,1,1,0,0,0,0,0,0
A2YLK83DQ6PA5Y,English,41,male,test,test_yarn,17668,0,0,0,1,"Stalls A, B, C, D and E.",Stalls D and E.,Stalls A and B.,exh,ms-l,ms-h,1,0,0,1,1,0,1,0,0,0,0,0,0,1
A2YLK83DQ6PA5Y,English,41,male,control,control_when,23677,0,0,1,0,NA,NA,NA,NA,NA,NA,NA,0,0,1,1,0,1,0,0,0,0,0,0,1
A2YLK83DQ6PA5Y,English,41,male,test,test_books,27674,0,0,0,1,Bookstores D and E.,Bookstore E.,"Bookstores A, B, C, D and E.",ms-l,mo-l,exh,1,0,1,0,1,0,1,0,0,0,0,0,0,1
A2YLK83DQ6PA5Y,English,41,male,test,test_shoes,12084,0,0,0,1,Store E.,Stores A and B.,Store F.,mo-l,ms-h,fa,0,0,1,1,0,0,1,0,0,0,0,0,0,1
A2YLK83DQ6PA5Y,English,41,male,control,control_what,14525,0,1,0,0,NA,NA,NA,NA,NA,NA,NA,0,1,1,0,0,1,0,0,0,0,0,0,1
A2YLK83DQ6PA5Y,English,41,male,test,test_dentist,11556,0,0,0,1,Dentist A.,Dentists D and E.,"Dentists A, B, C, D and E.",mo-h,ms-l,exh,1,1,0,0,1,0,1,0,0,0,0,0,0,1
A2YLK83DQ6PA5Y,English,41,male,control,control_how,26534,0,0,1,0,NA,NA,NA,NA,NA,NA,NA,1,0,0,1,0,1,0,0,0,0,0,0,1
A2YLK83DQ6PA5Y,English,41,male,test,test_coffee,9716,0,0,0,1,"Cafes A, B, C, D and E.",Cafes A and B.,Cafes D and E.,exh,ms-h,ms-l,1,0,0,1,1,0,1,0,0,0,0,0,0,1
A2YLK83DQ6PA5Y,English,41,male,control,control_why,13828,0,0,0,1,NA,NA,NA,NA,NA,NA,NA,0,0,1,1,0,1,0,0,0,0,0,0,1
A2YLK83DQ6PA5Y,English,41,male,exit_quest,NA,56294,No%2C I'd give the same answer--what are you going to do%2C knock at random houses and ask for brunch? Of COURSE you're going to a restaurant.,No%2C I'm a fairly voracious reader.,Good luck with your study--oh%2C and why the heck is everything centered?,NA,NA,NA,NA,NA,NA,NA,NA,NA,NA,NA,NA,NA,NA,NA,NA,NA,NA,NA,NA,NA
ARHBT4K14I7U,english,49,female,consent,NA,32570,NA,NA,NA,NA,NA,NA,NA,NA,NA,NA,NA,NA,NA,NA,NA,NA,NA,NA,NA,NA,NA,NA,NA,NA
ARHBT4K14I7U,english,49,female,train,train_m,52635,0,0,1,0,NA,NA,NA,NA,NA,NA,NA,NA,NA,NA,NA,NA,NA,NA,NA,NA,NA,NA,NA,NA
ARHBT4K14I7U,english,49,female,train,train_f,82091,0,0,0,1,NA,NA,NA,NA,NA,NA,NA,NA,NA,NA,NA,NA,NA,NA,NA,NA,NA,NA,NA,NA
ARHBT4K14I7U,english,49,female,test,test_books,66896,0,0,1,0,Bookstores D and E.,Bookstore E.,Bookstores A and B.,ms-l,mo-l,ms-h,0,0,1,1,1,0,1,0,0,0,1,0,0,0
ARHBT4K14I7U,english,49,female,control,control_why,92518,0,0,0,1,NA,NA,NA,NA,NA,NA,NA,0,1,1,1,0,1,0,0,0,1,0,0,0
ARHBT4K14I7U,english,49,female,test,test_yarn,55410,1,0,0,0,Stalls A and B.,Stall E.,Stalls D and E.,ms-h,mo-l,ms-l,0,0,1,1,1,0,1,0,0,0,1,0,0,0
ARHBT4K14I7U,english,49,female,test,test_hair,65132,0,1,0,0,Stylists D and E.,Stylist A.,"Stylists A, B, C, D and E.",ms-l,mo-h,exh,1,1,0,0,1,0,1,0,1,0,0,0,0,0
ARHBT4K14I7U,english,49,female,control,control_when,44573,0,0,1,0,NA,NA,NA,NA,NA,NA,NA,1,0,0,1,0,1,0,1,0,0,0,0,0
ARHBT4K14I7U,english,49,female,test,test_coffee,27366,0,1,0,0,Cafe E.,Cafes A and B.,Cafes D and E.,mo-l,ms-h,ms-l,0,0,1,1,1,0,1,0,0,0,1,0,0,0
ARHBT4K14I7U,english,49,female,control,control_how,73275,0,1,0,0,NA,NA,NA,NA,NA,NA,NA,0,1,1,1,0,1,0,0,0,1,0,0,0
ARHBT4K14I7U,english,49,female,test,test_dentist,33960,0,1,0,0,Dentists A and B.,Dentist A.,Dentists D and E.,ms-h,mo-h,ms-l,0,1,0,1,1,0,1,0,1,0,0,0,0,0
ARHBT4K14I7U,english,49,female,test,test_shoes,46139,0,0,0,1,Stores D and E.,Store E.,Store F.,ms-l,mo-l,fa,0,0,1,0,1,0,1,0,0,0,0,0,0,1
ARHBT4K14I7U,english,49,female,control,control_what,36173,1,0,0,0,NA,NA,NA,NA,NA,NA,NA,0,1,0,1,0,1,0,0,0,0,0,0,1
ARHBT4K14I7U,english,49,female,exit_quest,NA,52795,No the question is the same%2C I would answer the same.,not really a little confusing but not hard,,NA,NA,NA,NA,NA,NA,NA,NA,NA,NA,NA,NA,NA,NA,NA,NA,NA,NA,NA,NA,NA
AECQ7QG4CQP69,English,35,male,consent,NA,189516,NA,NA,NA,NA,NA,NA,NA,NA,NA,NA,NA,NA,NA,NA,NA,NA,NA,NA,NA,NA,NA,NA,NA,NA
AECQ7QG4CQP69,English,35,male,train,train_m,50831,0,1,1,0,NA,NA,NA,NA,NA,NA,NA,NA,NA,NA,NA,NA,NA,NA,NA,NA,NA,NA,NA,NA
AECQ7QG4CQP69,English,35,male,train,train_f,116336,0,0,0,1,NA,NA,NA,NA,NA,NA,NA,NA,NA,NA,NA,NA,NA,NA,NA,NA,NA,NA,NA,NA
AECQ7QG4CQP69,English,35,male,test,test_coffee,62108,0,0,1,0,Cafe A.,Cafes A and B.,"Cafes A, B, C, D and E.",mo-h,ms-h,exh,1,1,0,1,0,0,1,1,0,0,0,0,0,0
AECQ7QG4CQP69,English,35,male,test,test_dentist,58242,0,0,0,1,Dentist E.,Dentists A and B.,Dentists D and E.,mo-l,ms-h,ms-l,0,0,1,1,1,0,1,0,0,0,0,0,0,1
AECQ7QG4CQP69,English,35,male,control,control_how,80278,0,0,1,0,NA,NA,NA,NA,NA,NA,NA,0,1,1,1,0,1,0,0,0,0,0,0,1
AECQ7QG4CQP69,English,35,male,test,test_shoes,68710,0,0,0,1,Stores D and E.,Store A.,Store E.,ms-l,mo-h,mo-l,0,1,1,0,1,0,1,0,0,0,0,0,0,1
AECQ7QG4CQP69,English,35,male,test,test_books,51577,0,0,0,1,"Bookstores A, B, C, D and E.",Bookstores A and B.,Bookstore A.,exh,ms-h,mo-h,1,1,0,1,0,0,1,0,0,0,0,0,0,1
AECQ7QG4CQP69,English,35,male,control,control_what,19456,1,0,0,0,NA,NA,NA,NA,NA,NA,NA,1,0,1,0,0,1,0,0,0,0,0,0,1
AECQ7QG4CQP69,English,35,male,test,test_yarn,81268,0,0,0,1,Stalls A and B.,Stall F.,Stall A.,ms-h,fa,mo-h,0,1,0,1,0,0,1,0,0,0,0,0,0,1
AECQ7QG4CQP69,English,35,male,control,control_when,39223,0,0,1,0,NA,NA,NA,NA,NA,NA,NA,1,0,1,0,0,1,0,0,0,0,0,0,1
AECQ7QG4CQP69,English,35,male,test,test_hair,19661,0,0,0,1,Stylists A and B.,Stylist A.,Stylist E.,ms-h,mo-h,mo-l,0,1,1,1,0,0,1,0,0,0,0,0,0,1
AECQ7QG4CQP69,English,35,male,control,control_why,67802,1,1,0,0,NA,NA,NA,NA,NA,NA,NA,1,1,1,0,0,1,0,0,0,0,0,0,1
AECQ7QG4CQP69,English,35,male,exit_quest,NA,81213,No.  It's pretty much the same question.,Nope,,NA,NA,NA,NA,NA,NA,NA,NA,NA,NA,NA,NA,NA,NA,NA,NA,NA,NA,NA,NA,NA
A19L8SNH73AX1Z,English,54,female,consent,NA,26269,NA,NA,NA,NA,NA,NA,NA,NA,NA,NA,NA,NA,NA,NA,NA,NA,NA,NA,NA,NA,NA,NA,NA,NA
A19L8SNH73AX1Z,English,54,female,train,train_f,48878,0,0,0,1,NA,NA,NA,NA,NA,NA,NA,NA,NA,NA,NA,NA,NA,NA,NA,NA,NA,NA,NA,NA
A19L8SNH73AX1Z,English,54,female,train,train_m,62863,0,0,1,0,NA,NA,NA,NA,NA,NA,NA,NA,NA,NA,NA,NA,NA,NA,NA,NA,NA,NA,NA,NA
A19L8SNH73AX1Z,English,54,female,test,test_hair,150397,1,1,1,0,Stylists A and B.,"Stylists A, B, C, D and E.",Stylist E.,ms-h,exh,mo-l,1,0,1,1,0,0,1,1,0,1,1,0,0,0
A19L8SNH73AX1Z,English,54,female,test,test_dentist,98901,0,0,0,1,Dentist A.,Dentist F.,Dentists D and E.,mo-h,fa,ms-l,0,1,0,0,1,0,1,0,0,0,0,0,0,1
A19L8SNH73AX1Z,English,54,female,control,control_what,66264,1,0,0,0,NA,NA,NA,NA,NA,NA,NA,1,0,0,1,0,1,0,0,0,0,0,0,1
A19L8SNH73AX1Z,English,54,female,test,test_shoes,52840,0,1,1,0,Store E.,Stores A and B.,Store A.,mo-l,ms-h,mo-h,0,1,1,1,0,0,1,0,1,0,1,0,0,0
A19L8SNH73AX1Z,English,54,female,test,test_coffee,33404,0,0,1,0,Cafes D and E.,Cafe E.,Cafe A.,ms-l,mo-l,mo-h,0,1,1,0,1,0,1,0,1,0,0,0,0,0
A19L8SNH73AX1Z,English,54,female,control,control_how,59368,1,1,1,0,NA,NA,NA,NA,NA,NA,NA,1,1,0,1,0,1,0,1,0,0,0,0,0
A19L8SNH73AX1Z,English,54,female,test,test_yarn,54610,0,0,0,1,Stall E.,Stall A.,Stalls A and B.,mo-l,mo-h,ms-h,0,1,1,1,0,0,1,0,0,0,0,0,0,1
A19L8SNH73AX1Z,English,54,female,control,control_why,55889,1,1,0,0,NA,NA,NA,NA,NA,NA,NA,1,1,1,0,0,1,0,0,0,0,0,0,1
A19L8SNH73AX1Z,English,54,female,test,test_books,63583,0,0,0,1,Bookstores A and B.,Bookstores D and E.,Bookstore E.,ms-h,ms-l,mo-l,0,0,1,1,1,0,1,0,0,0,0,0,0,1
A19L8SNH73AX1Z,English,54,female,control,control_when,44907,0,0,1,0,NA,NA,NA,NA,NA,NA,NA,0,1,1,1,0,1,0,0,0,0,0,0,1
A19L8SNH73AX1Z,English,54,female,exit_quest,NA,124724,No because basically it is the same question ,Yes because some of the questions were too vague to answer appropriately,no,NA,NA,NA,NA,NA,NA,NA,NA,NA,NA,NA,NA,NA,NA,NA,NA,NA,NA,NA,NA,NA
A2C6HMH2FDM2CI,English,57,male,consent,NA,76743,NA,NA,NA,NA,NA,NA,NA,NA,NA,NA,NA,NA,NA,NA,NA,NA,NA,NA,NA,NA,NA,NA,NA,NA
A2C6HMH2FDM2CI,English,57,male,train,train_f,75161,0,0,0,1,NA,NA,NA,NA,NA,NA,NA,NA,NA,NA,NA,NA,NA,NA,NA,NA,NA,NA,NA,NA
A2C6HMH2FDM2CI,English,57,male,train,train_m,66736,0,1,1,0,NA,NA,NA,NA,NA,NA,NA,NA,NA,NA,NA,NA,NA,NA,NA,NA,NA,NA,NA,NA
A2C6HMH2FDM2CI,English,57,male,test,test_hair,78057,0,0,0,1,Stylists A and B.,"Stylists A, B, C, D and E.",Stylist F.,ms-h,exh,fa,1,0,0,1,0,0,1,0,0,0,0,0,0,1
A2C6HMH2FDM2CI,English,57,male,test,test_yarn,61869,0,0,1,0,Stalls A and B.,"Stalls A, B, C, D and E.",Stall A.,ms-h,exh,mo-h,1,1,0,1,0,0,1,0,1,0,0,0,0,0
A2C6HMH2FDM2CI,English,57,male,control,control_when,64367,0,0,0,1,NA,NA,NA,NA,NA,NA,NA,1,0,1,0,0,1,0,1,0,0,0,0,0
A2C6HMH2FDM2CI,English,57,male,test,test_dentist,67441,0,0,0,1,Dentist E.,"Dentists A, B, C, D and E.",Dentist F.,mo-l,exh,fa,1,0,1,0,0,0,1,0,0,0,0,0,0,1
A2C6HMH2FDM2CI,English,57,male,test,test_coffee,73127,1,1,1,0,Cafes A and B.,Cafe E.,Cafe F.,ms-h,mo-l,fa,0,0,1,1,0,0,1,0,0,1,1,0,0,0
A2C6HMH2FDM2CI,English,57,male,control,control_how,54170,0,0,1,0,NA,NA,NA,NA,NA,NA,NA,0,1,1,0,0,1,0,0,1,1,0,0,0
A2C6HMH2FDM2CI,English,57,male,test,test_books,71858,0,0,0,1,Bookstore F.,Bookstores A and B.,Bookstore E.,fa,ms-h,mo-l,0,0,1,1,0,0,1,0,0,0,0,0,0,1
A2C6HMH2FDM2CI,English,57,male,control,control_what,37689,0,0,0,1,NA,NA,NA,NA,NA,NA,NA,0,1,1,0,0,1,0,0,0,0,0,0,1
A2C6HMH2FDM2CI,English,57,male,test,test_shoes,53448,1,0,0,0,Store A.,Store F.,Stores A and B.,mo-h,fa,ms-h,0,1,0,1,0,0,1,0,1,0,0,0,0,0
A2C6HMH2FDM2CI,English,57,male,control,control_why,49291,1,0,0,0,NA,NA,NA,NA,NA,NA,NA,1,0,1,0,0,1,0,1,0,0,0,0,0
A2C6HMH2FDM2CI,English,57,male,exit_quest,NA,154300,No%2C I would answer the same either way%2C as it is the same question worded differently,no It was long%2C but not difficult,Hi guys!,NA,NA,NA,NA,NA,NA,NA,NA,NA,NA,NA,NA,NA,NA,NA,NA,NA,NA,NA,NA,NA
A3C5G8LGIAW0XL,English,37,female,consent,NA,37803,NA,NA,NA,NA,NA,NA,NA,NA,NA,NA,NA,NA,NA,NA,NA,NA,NA,NA,NA,NA,NA,NA,NA,NA
A3C5G8LGIAW0XL,English,37,female,train,train_f,65067,0,1,0,0,NA,NA,NA,NA,NA,NA,NA,NA,NA,NA,NA,NA,NA,NA,NA,NA,NA,NA,NA,NA
A3C5G8LGIAW0XL,English,37,female,train,train_m,40645,0,0,1,0,NA,NA,NA,NA,NA,NA,NA,NA,NA,NA,NA,NA,NA,NA,NA,NA,NA,NA,NA,NA
A3C5G8LGIAW0XL,English,37,female,test,test_shoes,34044,0,0,0,1,Stores D and E.,Store E.,Store F.,ms-l,mo-l,fa,0,0,1,0,1,0,1,0,0,0,0,0,0,1
A3C5G8LGIAW0XL,English,37,female,test,test_dentist,84520,0,0,0,1,Dentist E.,Dentists D and E.,Dentists A and B.,mo-l,ms-l,ms-h,0,0,1,1,1,0,1,0,0,0,0,0,0,1
A3C5G8LGIAW0XL,English,37,female,control,control_how,29116,0,1,0,0,NA,NA,NA,NA,NA,NA,NA,0,1,1,1,0,1,0,0,0,0,0,0,1
A3C5G8LGIAW0XL,English,37,female,test,test_books,265625,0,0,0,1,"Bookstores A, B, C, D and E.",Bookstores D and E.,Bookstore F.,exh,ms-l,fa,1,0,0,0,1,0,1,0,0,0,0,0,0,1
A3C5G8LGIAW0XL,English,37,female,test,test_yarn,25200,0,1,0,0,Stalls A and B.,Stall A.,Stalls D and E.,ms-h,mo-h,ms-l,0,1,0,1,1,0,1,0,1,0,0,0,0,0
A3C5G8LGIAW0XL,English,37,female,control,control_why,39926,1,0,0,0,NA,NA,NA,NA,NA,NA,NA,1,0,1,1,0,1,0,1,0,0,0,0,0
A3C5G8LGIAW0XL,English,37,female,test,test_hair,19789,0,0,1,0,Stylist E.,Stylists D and E.,Stylist A.,mo-l,ms-l,mo-h,0,1,1,0,1,0,1,0,1,0,0,0,0,0
A3C5G8LGIAW0XL,English,37,female,control,control_when,81413,1,0,0,0,NA,NA,NA,NA,NA,NA,NA,1,1,0,1,0,1,0,1,0,0,0,0,0
A3C5G8LGIAW0XL,English,37,female,test,test_coffee,21460,1,0,0,0,Cafe A.,Cafes A and B.,Cafe E.,mo-h,ms-h,mo-l,0,1,1,1,0,0,1,0,1,0,0,0,0,0
A3C5G8LGIAW0XL,English,37,female,control,control_what,33991,1,0,0,0,NA,NA,NA,NA,NA,NA,NA,1,1,1,0,0,1,0,1,0,0,0,0,0
A3C5G8LGIAW0XL,English,37,female,exit_quest,NA,210936,Yes%2C because there will be multitude of places to go for brunch%2C when they ask where? I will be giving my recommendation based on my knowledge and experience., I only found it difficult insofar as me doubting my reading comprehension skills.,no,NA,NA,NA,NA,NA,NA,NA,NA,NA,NA,NA,NA,NA,NA,NA,NA,NA,NA,NA,NA,NA
A0017268R9SKD8U2Y3F,English,26,female,consent,NA,11747,NA,NA,NA,NA,NA,NA,NA,NA,NA,NA,NA,NA,NA,NA,NA,NA,NA,NA,NA,NA,NA,NA,NA,NA
A0017268R9SKD8U2Y3F,English,26,female,train,train_m,78574,0,0,1,0,NA,NA,NA,NA,NA,NA,NA,NA,NA,NA,NA,NA,NA,NA,NA,NA,NA,NA,NA,NA
A0017268R9SKD8U2Y3F,English,26,female,train,train_f,114167,0,0,0,1,NA,NA,NA,NA,NA,NA,NA,NA,NA,NA,NA,NA,NA,NA,NA,NA,NA,NA,NA,NA
A0017268R9SKD8U2Y3F,English,26,female,test,test_books,21786,0,0,0,1,Bookstore E.,Bookstore A.,Bookstores D and E.,mo-l,mo-h,ms-l,0,1,1,0,1,0,1,0,0,0,0,0,0,1
A0017268R9SKD8U2Y3F,English,26,female,control,control_what,185453,1,0,0,0,NA,NA,NA,NA,NA,NA,NA,1,1,0,1,0,1,0,0,0,0,0,0,1
A0017268R9SKD8U2Y3F,English,26,female,test,test_yarn,73179,1,0,0,0,Stall A.,Stalls D and E.,Stall E.,mo-h,ms-l,mo-l,0,1,1,0,1,0,1,0,1,0,0,0,0,0
A0017268R9SKD8U2Y3F,English,26,female,test,test_dentist,32228,0,0,1,0,Dentist F.,Dentist E.,Dentists A and B.,fa,mo-l,ms-h,0,0,1,1,0,0,1,0,0,0,1,0,0,0
A0017268R9SKD8U2Y3F,English,26,female,control,control_how,30340,0,0,1,0,NA,NA,NA,NA,NA,NA,NA,0,1,1,0,0,1,0,0,0,1,0,0,0
A0017268R9SKD8U2Y3F,English,26,female,test,test_coffee,11459,1,1,1,0,Cafe E.,Cafe F.,Cafe A.,mo-l,fa,mo-h,0,1,1,0,0,0,1,0,1,1,0,0,0,0
A0017268R9SKD8U2Y3F,English,26,female,control,control_why,78378,1,1,0,0,NA,NA,NA,NA,NA,NA,NA,1,1,0,0,0,1,0,1,1,0,0,0,0
A0017268R9SKD8U2Y3F,English,26,female,test,test_shoes,24404,1,1,1,0,Stores A and B.,Store E.,"Stores A, B, C, D and E.",ms-h,mo-l,exh,1,0,1,1,0,0,1,1,0,1,1,0,0,0
A0017268R9SKD8U2Y3F,English,26,female,test,test_hair,8868,1,1,1,0,Stylist A.,Stylist F.,Stylists D and E.,mo-h,fa,ms-l,0,1,0,0,1,0,1,0,1,0,0,1,0,0
A0017268R9SKD8U2Y3F,English,26,female,control,control_when,22014,0,0,0,1,NA,NA,NA,NA,NA,NA,NA,1,0,0,1,0,1,0,1,0,0,1,0,0
A0017268R9SKD8U2Y3F,English,26,female,exit_quest,NA,505289,Yes%2C I would answer differently. One question simply asks to list which restaurants serve brunch while the second question seeks advice on which restaurants to visit for brunch. ,"Here and there it was difficult. I didn't know how to answer questions such as%2C ""Do they know where XYZ got coffee from?"" Well%2C does it count when an individual only mentions one coffee shop when XYZ actually visited five coffee shops? That was hard.",No,NA,NA,NA,NA,NA,NA,NA,NA,NA,NA,NA,NA,NA,NA,NA,NA,NA,NA,NA,NA,NA
A2F2DDH12YU4AK,English,35,male,consent,NA,13670,NA,NA,NA,NA,NA,NA,NA,NA,NA,NA,NA,NA,NA,NA,NA,NA,NA,NA,NA,NA,NA,NA,NA,NA
A2F2DDH12YU4AK,English,35,male,train,train_f,20981,0,0,0,1,NA,NA,NA,NA,NA,NA,NA,NA,NA,NA,NA,NA,NA,NA,NA,NA,NA,NA,NA,NA
A2F2DDH12YU4AK,English,35,male,train,train_m,26940,0,1,1,0,NA,NA,NA,NA,NA,NA,NA,NA,NA,NA,NA,NA,NA,NA,NA,NA,NA,NA,NA,NA
A2F2DDH12YU4AK,English,35,male,test,test_coffee,25163,0,0,0,1,Cafe A.,Cafes D and E.,"Cafes A, B, C, D and E.",mo-h,ms-l,exh,1,1,0,0,1,0,1,0,0,0,0,0,0,1
A2F2DDH12YU4AK,English,35,male,test,test_yarn,19180,0,0,0,1,Stall E.,Stalls D and E.,Stall F.,mo-l,ms-l,fa,0,0,1,0,1,0,1,0,0,0,0,0,0,1
A2F2DDH12YU4AK,English,35,male,control,control_why,21684,1,0,0,0,NA,NA,NA,NA,NA,NA,NA,0,1,0,1,0,1,0,0,0,0,0,0,1
A2F2DDH12YU4AK,English,35,male,test,test_hair,18716,0,0,0,1,Stylist A.,Stylist F.,Stylist E.,mo-h,fa,mo-l,0,1,1,0,0,0,1,0,0,0,0,0,0,1
A2F2DDH12YU4AK,English,35,male,test,test_dentist,6106,0,0,0,1,Dentists A and B.,Dentist F.,Dentists D and E.,ms-h,fa,ms-l,0,0,0,1,1,0,1,0,0,0,0,0,0,1
A2F2DDH12YU4AK,English,35,male,control,control_what,20545,1,1,0,0,NA,NA,NA,NA,NA,NA,NA,0,0,1,1,0,1,0,0,0,0,0,0,1
A2F2DDH12YU4AK,English,35,male,test,test_shoes,4890,0,0,0,1,Store F.,Store E.,Stores D and E.,fa,mo-l,ms-l,0,0,1,0,1,0,1,0,0,0,0,0,0,1
A2F2DDH12YU4AK,English,35,male,control,control_when,21662,0,0,1,0,NA,NA,NA,NA,NA,NA,NA,0,1,0,1,0,1,0,0,0,0,0,0,1
A2F2DDH12YU4AK,English,35,male,test,test_books,5321,0,0,0,1,Bookstore E.,Bookstore A.,Bookstores D and E.,mo-l,mo-h,ms-l,0,1,1,0,1,0,1,0,0,0,0,0,0,1
A2F2DDH12YU4AK,English,35,male,control,control_how,21361,0,0,1,0,NA,NA,NA,NA,NA,NA,NA,1,1,0,1,0,1,0,0,0,0,0,0,1
A2F2DDH12YU4AK,English,35,male,exit_quest,NA,94599,Yes. The first question requests the set of all restaurants that serve brunch%2C the second question is phrased to request more specifically which restaurant to choose.,No. The question all seemed straight forward and simple to answer.,No further relevant comment%2C at this time.,NA,NA,NA,NA,NA,NA,NA,NA,NA,NA,NA,NA,NA,NA,NA,NA,NA,NA,NA,NA,NA
A3CZ2S6TCQTJBK,english,53,male,consent,NA,15973,NA,NA,NA,NA,NA,NA,NA,NA,NA,NA,NA,NA,NA,NA,NA,NA,NA,NA,NA,NA,NA,NA,NA,NA
A3CZ2S6TCQTJBK,english,53,male,train,train_f,57650,0,0,0,1,NA,NA,NA,NA,NA,NA,NA,NA,NA,NA,NA,NA,NA,NA,NA,NA,NA,NA,NA,NA
A3CZ2S6TCQTJBK,english,53,male,train,train_m,69410,0,1,1,0,NA,NA,NA,NA,NA,NA,NA,NA,NA,NA,NA,NA,NA,NA,NA,NA,NA,NA,NA,NA
A3CZ2S6TCQTJBK,english,53,male,test,test_dentist,82267,0,0,0,1,Dentists D and E.,Dentist F.,Dentist A.,ms-l,fa,mo-h,0,1,0,0,1,0,1,0,0,0,0,0,0,1
A3CZ2S6TCQTJBK,english,53,male,test,test_yarn,102175,1,1,1,0,Stall A.,Stalls A and B.,Stalls D and E.,mo-h,ms-h,ms-l,0,1,0,1,1,0,1,0,1,0,1,1,0,0
A3CZ2S6TCQTJBK,english,53,male,control,control_how,72995,0,1,1,0,NA,NA,NA,NA,NA,NA,NA,1,0,1,1,0,1,0,1,0,1,1,0,0
A3CZ2S6TCQTJBK,english,53,male,test,test_books,123896,0,0,0,1,Bookstore A.,Bookstore E.,Bookstore F.,mo-h,mo-l,fa,0,1,1,0,0,0,1,0,0,0,0,0,0,1
A3CZ2S6TCQTJBK,english,53,male,test,test_shoes,43060,1,1,1,0,Store F.,Store A.,Stores D and E.,fa,mo-h,ms-l,0,1,0,0,1,0,1,0,1,0,0,1,0,0
A3CZ2S6TCQTJBK,english,53,male,control,control_when,144897,0,0,0,1,NA,NA,NA,NA,NA,NA,NA,1,0,0,1,0,1,0,1,0,0,1,0,0
A3CZ2S6TCQTJBK,english,53,male,test,test_coffee,42342,0,1,1,0,Cafe E.,Cafes A and B.,Cafe A.,mo-l,ms-h,mo-h,0,1,1,1,0,0,1,0,1,0,1,0,0,0
A3CZ2S6TCQTJBK,english,53,male,control,control_why,56172,0,1,0,0,NA,NA,NA,NA,NA,NA,NA,1,1,1,0,0,1,0,1,0,1,0,0,0
A3CZ2S6TCQTJBK,english,53,male,test,test_hair,43553,1,1,1,0,Stylists D and E.,Stylist A.,Stylist E.,ms-l,mo-h,mo-l,0,1,1,0,1,0,1,0,1,1,0,1,0,0
A3CZ2S6TCQTJBK,english,53,male,control,control_what,30418,1,0,0,0,NA,NA,NA,NA,NA,NA,NA,1,1,0,1,0,1,0,1,1,0,1,0,0
A3CZ2S6TCQTJBK,english,53,male,exit_quest,NA,235957,"The first is asking for just locations. The second implies a question of opinion as to ""where should I go for brunch.""",I think it was difficult because for me there was a lot of wiggle room as to what would be a correct answer,no,NA,NA,NA,NA,NA,NA,NA,NA,NA,NA,NA,NA,NA,NA,NA,NA,NA,NA,NA,NA,NA
A2OSK4VP3ZOV7O,English,26,female,consent,NA,62046,NA,NA,NA,NA,NA,NA,NA,NA,NA,NA,NA,NA,NA,NA,NA,NA,NA,NA,NA,NA,NA,NA,NA,NA
A2OSK4VP3ZOV7O,English,26,female,train,train_m,59967,0,0,1,0,NA,NA,NA,NA,NA,NA,NA,NA,NA,NA,NA,NA,NA,NA,NA,NA,NA,NA,NA,NA
A2OSK4VP3ZOV7O,English,26,female,train,train_f,41077,0,0,0,1,NA,NA,NA,NA,NA,NA,NA,NA,NA,NA,NA,NA,NA,NA,NA,NA,NA,NA,NA,NA
