subject,native_lang,age,gender,trial,story,reaction_time,response_a,response_b,response_c,response_d,report_a,report_b,report_c,tag_a,tag_b,tag_c,exhaustive_seen,mention_one_high_seen,mention_one_low_seen,mention_some_high_seen,mention_some_low_seen,false_report_seen,none_of_above_seen,exhaustive_chosen,mention_one_high_chosen,mention_one_low_chosen,mention_some_high_chosen,mention_some_low_chosen,false_report_chosen,none_of_above_chosen
A1JQ3GAFW1XZYZ,english,21,male,consent,NA,82756,NA,NA,NA,NA,NA,NA,NA,NA,NA,NA,NA,NA,NA,NA,NA,NA,NA,NA,NA,NA,NA,NA,NA,NA
A1JQ3GAFW1XZYZ,english,21,male,train,train_m,5812,0,1,0,0,NA,NA,NA,NA,NA,NA,NA,NA,NA,NA,NA,NA,NA,NA,NA,NA,NA,NA,NA,NA
A1JQ3GAFW1XZYZ,english,21,male,train,train_f,2900,0,1,0,0,NA,NA,NA,NA,NA,NA,NA,NA,NA,NA,NA,NA,NA,NA,NA,NA,NA,NA,NA,NA
A1JQ3GAFW1XZYZ,english,21,male,test,test_books,4852,1,0,0,0,Bookstore A.,Bookstores D and E.,Bookstore E.,mo-h,ms-l,mo-l,0,1,1,0,1,0,1,0,1,0,0,0,0,0
A1JQ3GAFW1XZYZ,english,21,male,test,test_dentist,2733,1,0,0,0,Dentist E.,Dentist A.,Dentist F.,mo-l,mo-h,fa,0,1,1,0,0,0,1,0,0,1,0,0,0,0
A1JQ3GAFW1XZYZ,english,21,male,control,control_when,2668,1,0,0,0,NA,NA,NA,NA,NA,NA,NA,1,1,0,0,0,1,0,0,1,0,0,0,0
A1JQ3GAFW1XZYZ,english,21,male,test,test_coffee,2685,1,0,0,0,Cafe A.,Cafes D and E.,Cafe E.,mo-h,ms-l,mo-l,0,1,1,0,1,0,1,0,1,0,0,0,0,0
A1JQ3GAFW1XZYZ,english,21,male,control,control_why,1949,0,0,0,0,NA,NA,NA,NA,NA,NA,NA,1,1,0,1,0,1,0,1,0,0,0,0,0
A1JQ3GAFW1XZYZ,english,21,male,test,test_hair,2957,0,1,0,0,Stylist A.,Stylist E.,Stylists D and E.,mo-h,mo-l,ms-l,0,1,1,0,1,0,1,0,0,1,0,0,0,0
A1JQ3GAFW1XZYZ,english,21,male,test,test_yarn,6229,0,1,0,0,Stalls A and B.,"Stalls A, B, C, D and E.",Stalls D and E.,ms-h,exh,ms-l,1,0,0,1,1,0,1,1,0,0,0,0,0,0
A1JQ3GAFW1XZYZ,english,21,male,control,control_how,8269,0,1,0,0,NA,NA,NA,NA,NA,NA,NA,0,0,1,1,0,1,1,0,0,0,0,0,0
A1JQ3GAFW1XZYZ,english,21,male,test,test_shoes,5316,1,0,0,0,Stores D and E.,Stores A and B.,Store A.,ms-l,ms-h,mo-h,0,1,0,1,1,0,1,0,0,0,0,1,0,0
A1JQ3GAFW1XZYZ,english,21,male,control,control_what,2110,1,0,0,0,NA,NA,NA,NA,NA,NA,NA,1,0,1,1,0,1,0,0,0,0,1,0,0
A1JQ3GAFW1XZYZ,english,21,male,exit_quest,NA,20125,good,good,good,NA,NA,NA,NA,NA,NA,NA,NA,NA,NA,NA,NA,NA,NA,NA,NA,NA,NA,NA,NA,NA
A251YA0XPAWWIQ,english,32,female,consent,NA,27655,NA,NA,NA,NA,NA,NA,NA,NA,NA,NA,NA,NA,NA,NA,NA,NA,NA,NA,NA,NA,NA,NA,NA,NA
A251YA0XPAWWIQ,english,32,female,train,train_f,23445,0,0,0,1,NA,NA,NA,NA,NA,NA,NA,NA,NA,NA,NA,NA,NA,NA,NA,NA,NA,NA,NA,NA
A251YA0XPAWWIQ,english,32,female,train,train_m,17950,0,1,0,0,NA,NA,NA,NA,NA,NA,NA,NA,NA,NA,NA,NA,NA,NA,NA,NA,NA,NA,NA,NA
A251YA0XPAWWIQ,english,32,female,test,test_dentist,32496,0,0,1,0,Dentists D and E.,Dentists A and B.,Dentist E.,ms-l,ms-h,mo-l,0,0,1,1,1,0,1,0,0,1,0,0,0,0
A251YA0XPAWWIQ,english,32,female,test,test_books,8003,0,0,1,0,Bookstores A and B.,"Bookstores A, B, C, D and E.",Bookstore A.,ms-h,exh,mo-h,1,1,0,1,0,0,1,0,1,0,0,0,0,0
A251YA0XPAWWIQ,english,32,female,control,control_when,3347,0,0,1,0,NA,NA,NA,NA,NA,NA,NA,1,0,1,0,0,1,0,1,0,0,0,0,0
A251YA0XPAWWIQ,english,32,female,test,test_hair,4341,0,0,1,0,Stylist F.,Stylist E.,Stylist A.,fa,mo-l,mo-h,0,1,1,0,0,0,1,0,1,0,0,0,0,0
A251YA0XPAWWIQ,english,32,female,control,control_what,7565,0,0,1,0,NA,NA,NA,NA,NA,NA,NA,1,1,0,0,0,1,0,1,0,0,0,0,0
A251YA0XPAWWIQ,english,32,female,test,test_yarn,5535,0,0,1,0,Stalls A and B.,Stall E.,Stall F.,ms-h,mo-l,fa,0,0,1,1,0,0,1,0,0,0,0,0,0,0
A251YA0XPAWWIQ,english,32,female,test,test_shoes,3813,0,0,1,0,Stores D and E.,Store A.,Store E.,ms-l,mo-h,mo-l,0,1,1,0,1,0,1,0,0,1,0,0,0,0
A251YA0XPAWWIQ,english,32,female,control,control_why,13521,0,0,1,0,NA,NA,NA,NA,NA,NA,NA,1,1,0,1,0,1,0,0,1,0,0,0,0
A251YA0XPAWWIQ,english,32,female,test,test_coffee,5374,1,0,0,0,Cafes D and E.,Cafe A.,Cafe E.,ms-l,mo-h,mo-l,0,1,1,0,1,0,1,0,0,0,0,1,0,0
A251YA0XPAWWIQ,english,32,female,control,control_how,3742,0,0,1,0,NA,NA,NA,NA,NA,NA,NA,1,1,0,1,0,1,0,0,0,0,1,0,0
A251YA0XPAWWIQ,english,32,female,exit_quest,NA,3967,,,,NA,NA,NA,NA,NA,NA,NA,NA,NA,NA,NA,NA,NA,NA,NA,NA,NA,NA,NA,NA,NA
A3PLDW841STU8B,english,21,male,consent,NA,35676,NA,NA,NA,NA,NA,NA,NA,NA,NA,NA,NA,NA,NA,NA,NA,NA,NA,NA,NA,NA,NA,NA,NA,NA
A3PLDW841STU8B,english,21,male,train,train_f,28897,1,0,0,0,NA,NA,NA,NA,NA,NA,NA,NA,NA,NA,NA,NA,NA,NA,NA,NA,NA,NA,NA,NA
A3PLDW841STU8B,english,21,male,train,train_m,5361,0,0,1,0,NA,NA,NA,NA,NA,NA,NA,NA,NA,NA,NA,NA,NA,NA,NA,NA,NA,NA,NA,NA
A3PLDW841STU8B,english,21,male,test,test_coffee,6496,0,1,0,0,Cafe F.,Cafe E.,Cafes A and B.,fa,mo-l,ms-h,0,0,1,1,0,0,1,0,0,1,0,0,0,0
A3PLDW841STU8B,english,21,male,control,control_when,4533,1,0,0,0,NA,NA,NA,NA,NA,NA,NA,0,1,1,0,0,1,0,0,1,0,0,0,0
A3PLDW841STU8B,english,21,male,test,test_yarn,3773,0,0,1,0,Stall E.,Stall A.,Stall F.,mo-l,mo-h,fa,0,1,1,0,0,0,1,0,0,0,0,0,0,0
A3PLDW841STU8B,english,21,male,test,test_books,3994,0,0,1,0,Bookstores D and E.,Bookstore E.,Bookstore F.,ms-l,mo-l,fa,0,0,1,0,1,0,1,0,0,0,0,0,0,0
A3PLDW841STU8B,english,21,male,control,control_how,2433,0,0,1,0,NA,NA,NA,NA,NA,NA,NA,0,1,0,1,0,1,0,0,0,0,0,0,0
A3PLDW841STU8B,english,21,male,test,test_shoes,2977,0,1,0,0,Store F.,Stores D and E.,"Stores A, B, C, D and E.",fa,ms-l,exh,1,0,0,0,1,0,1,0,0,0,0,1,0,0
A3PLDW841STU8B,english,21,male,control,control_why,3155,0,0,1,0,NA,NA,NA,NA,NA,NA,NA,0,0,0,1,0,1,0,0,0,0,1,0,0
A3PLDW841STU8B,english,21,male,test,test_hair,4169,0,1,0,0,Stylist E.,Stylist A.,"Stylists A, B, C, D and E.",mo-l,mo-h,exh,1,1,1,0,0,0,1,0,1,0,0,0,0,0
A3PLDW841STU8B,english,21,male,test,test_dentist,2273,1,0,0,0,Dentists A and B.,Dentist E.,"Dentists A, B, C, D and E.",ms-h,mo-l,exh,1,0,1,1,0,0,1,0,0,0,1,0,0,0
A3PLDW841STU8B,english,21,male,control,control_what,1882,0,1,0,0,NA,NA,NA,NA,NA,NA,NA,0,1,1,0,0,1,0,0,0,1,0,0,0
A3PLDW841STU8B,english,21,male,exit_quest,NA,114571,good,very good,knoweldge,NA,NA,NA,NA,NA,NA,NA,NA,NA,NA,NA,NA,NA,NA,NA,NA,NA,NA,NA,NA,NA
A3A4UFCFF9DMW3,english,22,male,consent,NA,28126,NA,NA,NA,NA,NA,NA,NA,NA,NA,NA,NA,NA,NA,NA,NA,NA,NA,NA,NA,NA,NA,NA,NA,NA
A3A4UFCFF9DMW3,english,22,male,train,train_f,10890,0,0,1,0,NA,NA,NA,NA,NA,NA,NA,NA,NA,NA,NA,NA,NA,NA,NA,NA,NA,NA,NA,NA
A3A4UFCFF9DMW3,english,22,male,train,train_m,10071,1,0,0,0,NA,NA,NA,NA,NA,NA,NA,NA,NA,NA,NA,NA,NA,NA,NA,NA,NA,NA,NA,NA
A3A4UFCFF9DMW3,english,22,male,test,test_dentist,5944,0,1,0,0,Dentists A and B.,Dentist E.,Dentist A.,ms-h,mo-l,mo-h,0,1,1,1,0,0,1,0,0,1,0,0,0,0
A3A4UFCFF9DMW3,english,22,male,test,test_books,7010,0,0,1,0,Bookstore E.,Bookstores A and B.,Bookstores D and E.,mo-l,ms-h,ms-l,0,0,1,1,1,0,1,0,0,0,0,1,0,0
A3A4UFCFF9DMW3,english,22,male,control,control_what,5275,0,1,0,0,NA,NA,NA,NA,NA,NA,NA,0,1,1,1,0,1,0,0,0,0,1,0,0
A3A4UFCFF9DMW3,english,22,male,test,test_shoes,6752,0,0,1,0,Stores D and E.,"Stores A, B, C, D and E.",Store E.,ms-l,exh,mo-l,1,0,1,0,1,0,1,0,0,1,0,0,0,0
A3A4UFCFF9DMW3,english,22,male,control,control_how,3195,0,1,0,0,NA,NA,NA,NA,NA,NA,NA,0,1,0,1,0,1,0,0,1,0,0,0,0
A3A4UFCFF9DMW3,english,22,male,test,test_hair,4028,0,1,0,0,Stylists A and B.,Stylist E.,Stylists D and E.,ms-h,mo-l,ms-l,0,0,1,1,1,0,1,0,0,1,0,0,0,0
A3A4UFCFF9DMW3,english,22,male,test,test_yarn,2209,0,1,0,0,Stall A.,Stalls D and E.,Stall F.,mo-h,ms-l,fa,0,1,0,0,1,0,1,0,0,0,0,1,0,0
A3A4UFCFF9DMW3,english,22,male,control,control_when,4421,1,0,0,0,NA,NA,NA,NA,NA,NA,NA,1,0,0,1,0,1,0,0,0,0,1,0,0
A3A4UFCFF9DMW3,english,22,male,test,test_coffee,4430,1,0,0,0,Cafe E.,Cafes D and E.,Cafes A and B.,mo-l,ms-l,ms-h,0,0,1,1,1,0,1,0,0,1,0,0,0,0
A3A4UFCFF9DMW3,english,22,male,control,control_why,2267,0,1,0,0,NA,NA,NA,NA,NA,NA,NA,0,1,1,1,0,1,0,0,1,0,0,0,0
A3A4UFCFF9DMW3,english,22,male,exit_quest,NA,87152,good,no,very good,NA,NA,NA,NA,NA,NA,NA,NA,NA,NA,NA,NA,NA,NA,NA,NA,NA,NA,NA,NA,NA
A1WKF2VH7TV0H2,English,22,female,consent,NA,12128,NA,NA,NA,NA,NA,NA,NA,NA,NA,NA,NA,NA,NA,NA,NA,NA,NA,NA,NA,NA,NA,NA,NA,NA
A1WKF2VH7TV0H2,English,22,female,train,train_m,12421,0,0,1,0,NA,NA,NA,NA,NA,NA,NA,NA,NA,NA,NA,NA,NA,NA,NA,NA,NA,NA,NA,NA
A1WKF2VH7TV0H2,English,22,female,train,train_f,14637,0,0,0,1,NA,NA,NA,NA,NA,NA,NA,NA,NA,NA,NA,NA,NA,NA,NA,NA,NA,NA,NA,NA
A1WKF2VH7TV0H2,English,22,female,test,test_dentist,13399,1,1,1,0,Dentists D and E.,Dentist A.,"Dentists A, B, C, D and E.",ms-l,mo-h,exh,1,1,0,0,1,0,1,1,1,0,0,1,0,0
A1WKF2VH7TV0H2,English,22,female,test,test_shoes,7786,1,1,1,0,Store A.,Store E.,Store F.,mo-h,mo-l,fa,0,1,1,0,0,0,1,0,1,1,0,0,0,0
A1WKF2VH7TV0H2,English,22,female,control,control_how,16051,1,1,1,0,NA,NA,NA,NA,NA,NA,NA,1,1,0,0,0,1,0,1,1,0,0,0,0
A1WKF2VH7TV0H2,English,22,female,test,test_yarn,16402,0,1,1,0,Stalls D and E.,Stall A.,Stalls A and B.,ms-l,mo-h,ms-h,0,1,0,1,1,0,1,0,1,0,1,0,0,0
A1WKF2VH7TV0H2,English,22,female,test,test_coffee,29700,0,1,0,0,Cafe F.,Cafes A and B.,Cafe E.,fa,ms-h,mo-l,0,0,1,1,0,0,1,0,0,0,1,0,0,0
A1WKF2VH7TV0H2,English,22,female,control,control_why,5321,1,1,0,0,NA,NA,NA,NA,NA,NA,NA,0,1,1,0,0,1,0,0,0,1,0,0,0
A1WKF2VH7TV0H2,English,22,female,test,test_hair,9980,0,1,1,0,Stylists D and E.,Stylists A and B.,Stylist A.,ms-l,ms-h,mo-h,0,1,0,1,1,0,1,0,1,0,1,0,0,0
A1WKF2VH7TV0H2,English,22,female,control,control_what,10001,1,0,0,0,NA,NA,NA,NA,NA,NA,NA,1,0,1,1,0,1,0,1,0,1,0,0,0
A1WKF2VH7TV0H2,English,22,female,test,test_books,2810,0,0,1,0,Bookstores D and E.,Bookstore E.,Bookstore A.,ms-l,mo-l,mo-h,0,1,1,0,1,0,1,0,1,0,0,0,0,0
A1WKF2VH7TV0H2,English,22,female,control,control_when,8993,0,0,0,1,NA,NA,NA,NA,NA,NA,NA,1,1,0,1,0,1,0,1,0,0,0,0,0
A1WKF2VH7TV0H2,English,22,female,exit_quest,NA,20332,Yes%2C it's 2 different questions.,No%2C because it's not hard.,No.,NA,NA,NA,NA,NA,NA,NA,NA,NA,NA,NA,NA,NA,NA,NA,NA,NA,NA,NA,NA,NA
ADUACF4TW5833,ENGLISH,28,male,consent,NA,38642,NA,NA,NA,NA,NA,NA,NA,NA,NA,NA,NA,NA,NA,NA,NA,NA,NA,NA,NA,NA,NA,NA,NA,NA
ADUACF4TW5833,ENGLISH,28,male,train,train_m,7892,1,0,0,0,NA,NA,NA,NA,NA,NA,NA,NA,NA,NA,NA,NA,NA,NA,NA,NA,NA,NA,NA,NA
ADUACF4TW5833,ENGLISH,28,male,train,train_f,4194,1,0,0,0,NA,NA,NA,NA,NA,NA,NA,NA,NA,NA,NA,NA,NA,NA,NA,NA,NA,NA,NA,NA
ADUACF4TW5833,ENGLISH,28,male,test,test_dentist,5956,0,0,1,0,"Dentists A, B, C, D and E.",Dentists D and E.,Dentist A.,exh,ms-l,mo-h,1,1,0,0,1,0,1,0,1,0,0,0,0,0
ADUACF4TW5833,ENGLISH,28,male,test,test_coffee,3661,1,0,0,0,Cafes D and E.,Cafe E.,Cafes A and B.,ms-l,mo-l,ms-h,0,0,1,1,1,0,1,0,0,0,0,1,0,0
ADUACF4TW5833,ENGLISH,28,male,control,control_why,2951,0,0,0,0,NA,NA,NA,NA,NA,NA,NA,0,1,1,1,0,1,0,0,0,0,1,0,0
ADUACF4TW5833,ENGLISH,28,male,test,test_shoes,8286,1,0,0,0,Store A.,Store F.,Store E.,mo-h,fa,mo-l,0,1,1,0,0,0,1,0,1,0,0,0,0,0
ADUACF4TW5833,ENGLISH,28,male,control,control_how,2520,1,0,0,0,NA,NA,NA,NA,NA,NA,NA,1,1,0,0,0,1,0,1,0,0,0,0,0
ADUACF4TW5833,ENGLISH,28,male,test,test_books,4266,1,0,0,0,"Bookstores A, B, C, D and E.",Bookstore A.,Bookstores A and B.,exh,mo-h,ms-h,1,1,0,1,0,0,1,1,0,0,0,0,0,0
ADUACF4TW5833,ENGLISH,28,male,test,test_hair,3726,1,0,0,0,Stylists D and E.,"Stylists A, B, C, D and E.",Stylist A.,ms-l,exh,mo-h,1,1,0,0,1,0,1,0,0,0,0,1,0,0
ADUACF4TW5833,ENGLISH,28,male,control,control_what,2968,1,0,0,0,NA,NA,NA,NA,NA,NA,NA,1,0,0,1,0,1,0,0,0,0,1,0,0
ADUACF4TW5833,ENGLISH,28,male,test,test_yarn,3738,1,0,0,0,Stalls D and E.,Stall E.,"Stalls A, B, C, D and E.",ms-l,mo-l,exh,1,0,1,0,1,0,1,0,0,0,0,1,0,0
ADUACF4TW5833,ENGLISH,28,male,control,control_when,2177,1,0,0,0,NA,NA,NA,NA,NA,NA,NA,0,1,0,1,0,1,0,0,0,0,1,0,0
ADUACF4TW5833,ENGLISH,28,male,exit_quest,NA,116004,Best Sunday Brunch in Mumbai Menu%2C Photos,small bites are served on cocktail sticks.,Here are the places to have brunch,NA,NA,NA,NA,NA,NA,NA,NA,NA,NA,NA,NA,NA,NA,NA,NA,NA,NA,NA,NA,NA
ABZ1LM3J8REE6,english,58,male,consent,NA,41002,NA,NA,NA,NA,NA,NA,NA,NA,NA,NA,NA,NA,NA,NA,NA,NA,NA,NA,NA,NA,NA,NA,NA,NA
ABZ1LM3J8REE6,english,58,male,train,train_f,14755,1,0,0,0,NA,NA,NA,NA,NA,NA,NA,NA,NA,NA,NA,NA,NA,NA,NA,NA,NA,NA,NA,NA
ABZ1LM3J8REE6,english,58,male,train,train_m,15940,1,0,0,0,NA,NA,NA,NA,NA,NA,NA,NA,NA,NA,NA,NA,NA,NA,NA,NA,NA,NA,NA,NA
ABZ1LM3J8REE6,english,58,male,test,test_shoes,14414,0,1,0,0,"Stores A, B, C, D and E.",Store A.,Store E.,exh,mo-h,mo-l,1,1,1,0,0,0,1,0,1,0,0,0,0,0
ABZ1LM3J8REE6,english,58,male,control,control_why,29365,1,1,1,1,NA,NA,NA,NA,NA,NA,NA,1,1,0,0,0,1,0,1,0,0,0,0,0
ABZ1LM3J8REE6,english,58,male,test,test_coffee,9687,0,0,0,0,Cafes D and E.,Cafe A.,Cafe E.,ms-l,mo-h,mo-l,0,1,1,0,1,0,1,0,0,0,0,0,0,0
ABZ1LM3J8REE6,english,58,male,test,test_dentist,9434,0,0,1,0,Dentists A and B.,Dentist E.,Dentists D and E.,ms-h,mo-l,ms-l,0,0,1,1,1,0,1,0,0,0,0,1,0,0
ABZ1LM3J8REE6,english,58,male,control,control_what,5580,1,0,0,0,NA,NA,NA,NA,NA,NA,NA,0,1,1,1,0,1,0,0,0,0,1,0,0
ABZ1LM3J8REE6,english,58,male,test,test_books,8792,0,1,0,0,Bookstores A and B.,Bookstore E.,Bookstore A.,ms-h,mo-l,mo-h,0,1,1,1,0,0,1,0,0,1,0,0,0,0
ABZ1LM3J8REE6,english,58,male,control,control_how,12728,1,1,1,1,NA,NA,NA,NA,NA,NA,NA,1,1,1,0,0,1,0,0,1,0,0,0,0
ABZ1LM3J8REE6,english,58,male,test,test_hair,11206,1,1,1,0,Stylist E.,Stylists A and B.,"Stylists A, B, C, D and E.",mo-l,ms-h,exh,1,0,1,1,0,0,1,1,0,1,1,0,0,0
ABZ1LM3J8REE6,english,58,male,test,test_yarn,9360,1,1,1,0,Stall F.,"Stalls A, B, C, D and E.",Stalls D and E.,fa,exh,ms-l,1,0,0,0,1,0,1,1,0,0,0,1,0,0
ABZ1LM3J8REE6,english,58,male,control,control_when,5436,0,1,0,0,NA,NA,NA,NA,NA,NA,NA,0,0,0,1,0,1,1,0,0,0,1,0,0
ABZ1LM3J8REE6,english,58,male,exit_quest,NA,87111,the quality is good,no because is an knowledgeable task,good,NA,NA,NA,NA,NA,NA,NA,NA,NA,NA,NA,NA,NA,NA,NA,NA,NA,NA,NA,NA,NA
A1WL6K3EUA2WOX,ENGLISH,72,male,consent,NA,24087,NA,NA,NA,NA,NA,NA,NA,NA,NA,NA,NA,NA,NA,NA,NA,NA,NA,NA,NA,NA,NA,NA,NA,NA
A1WL6K3EUA2WOX,ENGLISH,72,male,train,train_m,48521,1,1,1,1,NA,NA,NA,NA,NA,NA,NA,NA,NA,NA,NA,NA,NA,NA,NA,NA,NA,NA,NA,NA
A1WL6K3EUA2WOX,ENGLISH,72,male,train,train_f,10292,1,1,1,1,NA,NA,NA,NA,NA,NA,NA,NA,NA,NA,NA,NA,NA,NA,NA,NA,NA,NA,NA,NA
A1WL6K3EUA2WOX,ENGLISH,72,male,test,test_shoes,10261,1,1,1,0,Store E.,Stores D and E.,"Stores A, B, C, D and E.",mo-l,ms-l,exh,1,0,1,0,1,0,1,1,0,1,0,1,0,0
A1WL6K3EUA2WOX,ENGLISH,72,male,test,test_hair,7855,1,1,1,0,Stylist E.,Stylist F.,Stylists D and E.,mo-l,fa,ms-l,0,0,1,0,1,0,1,0,0,1,0,1,0,0
A1WL6K3EUA2WOX,ENGLISH,72,male,control,control_why,6078,1,1,1,0,NA,NA,NA,NA,NA,NA,NA,0,1,0,1,0,1,0,0,1,0,1,0,0
A1WL6K3EUA2WOX,ENGLISH,72,male,test,test_yarn,5102,1,1,1,0,"Stalls A, B, C, D and E.",Stall E.,Stalls D and E.,exh,mo-l,ms-l,1,0,1,0,1,0,1,1,0,1,0,1,0,0
A1WL6K3EUA2WOX,ENGLISH,72,male,test,test_books,5806,1,1,1,0,Bookstores A and B.,Bookstores D and E.,Bookstore E.,ms-h,ms-l,mo-l,0,0,1,1,1,0,1,0,0,1,1,1,0,0
A1WL6K3EUA2WOX,ENGLISH,72,male,control,control_when,32986,0,1,0,0,NA,NA,NA,NA,NA,NA,NA,0,1,1,1,0,1,0,0,1,1,1,0,0
A1WL6K3EUA2WOX,ENGLISH,72,male,test,test_coffee,6180,1,1,1,0,Cafe A.,Cafe E.,Cafes D and E.,mo-h,mo-l,ms-l,0,1,1,0,1,0,1,0,1,1,0,1,0,0
A1WL6K3EUA2WOX,ENGLISH,72,male,control,control_how,5060,1,1,1,0,NA,NA,NA,NA,NA,NA,NA,1,1,0,1,0,1,0,1,1,0,1,0,0
A1WL6K3EUA2WOX,ENGLISH,72,male,test,test_dentist,7998,1,1,1,0,Dentist A.,"Dentists A, B, C, D and E.",Dentists A and B.,mo-h,exh,ms-h,1,1,0,1,0,0,1,1,1,0,1,0,0,0
A1WL6K3EUA2WOX,ENGLISH,72,male,control,control_what,5336,1,1,1,0,NA,NA,NA,NA,NA,NA,NA,1,0,1,0,0,1,1,1,0,1,0,0,0
A1WL6K3EUA2WOX,ENGLISH,72,male,exit_quest,NA,49188,SHE SAYS GO FOR THE TOWN,NO,NICE TASK,NA,NA,NA,NA,NA,NA,NA,NA,NA,NA,NA,NA,NA,NA,NA,NA,NA,NA,NA,NA,NA
A2APHZ2KOI1MPI,English,51,male,consent,NA,41911,NA,NA,NA,NA,NA,NA,NA,NA,NA,NA,NA,NA,NA,NA,NA,NA,NA,NA,NA,NA,NA,NA,NA,NA
A2APHZ2KOI1MPI,English,51,male,train,train_m,38289,1,1,1,0,NA,NA,NA,NA,NA,NA,NA,NA,NA,NA,NA,NA,NA,NA,NA,NA,NA,NA,NA,NA
A2APHZ2KOI1MPI,English,51,male,train,train_f,28666,1,1,1,0,NA,NA,NA,NA,NA,NA,NA,NA,NA,NA,NA,NA,NA,NA,NA,NA,NA,NA,NA,NA
A2APHZ2KOI1MPI,English,51,male,test,test_yarn,45014,1,1,0,0,Stalls D and E.,Stall F.,Stalls A and B.,ms-l,fa,ms-h,0,0,0,1,1,0,1,0,0,0,0,1,0,0
A2APHZ2KOI1MPI,English,51,male,test,test_shoes,6157,1,1,0,0,Stores A and B.,Stores D and E.,Store A.,ms-h,ms-l,mo-h,0,1,0,1,1,0,1,0,0,0,1,1,0,0
A2APHZ2KOI1MPI,English,51,male,control,control_when,22222,1,1,0,0,NA,NA,NA,NA,NA,NA,NA,1,0,1,1,0,1,0,0,0,1,1,0,0
A2APHZ2KOI1MPI,English,51,male,test,test_dentist,9090,1,1,0,0,Dentists D and E.,Dentist E.,Dentists A and B.,ms-l,mo-l,ms-h,0,0,1,1,1,0,1,0,0,1,0,1,0,0
A2APHZ2KOI1MPI,English,51,male,test,test_hair,5078,0,1,1,0,Stylist A.,Stylists D and E.,Stylist E.,mo-h,ms-l,mo-l,0,1,1,0,1,0,1,0,0,1,0,1,0,0
A2APHZ2KOI1MPI,English,51,male,control,control_what,4777,0,1,1,0,NA,NA,NA,NA,NA,NA,NA,1,1,0,1,0,1,0,0,1,0,1,0,0
A2APHZ2KOI1MPI,English,51,male,test,test_coffee,9766,1,1,0,0,Cafe E.,Cafe F.,Cafe A.,mo-l,fa,mo-h,0,1,1,0,0,0,1,0,0,1,0,0,0,0
A2APHZ2KOI1MPI,English,51,male,control,control_how,5645,1,1,0,0,NA,NA,NA,NA,NA,NA,NA,1,1,0,0,0,1,0,0,1,0,0,0,0
A2APHZ2KOI1MPI,English,51,male,test,test_books,4521,0,1,1,0,Bookstore A.,Bookstores D and E.,Bookstore E.,mo-h,ms-l,mo-l,0,1,1,0,1,0,1,0,0,1,0,1,0,0
A2APHZ2KOI1MPI,English,51,male,control,control_why,4498,1,1,0,0,NA,NA,NA,NA,NA,NA,NA,1,1,0,1,0,1,0,0,1,0,1,0,0
A2APHZ2KOI1MPI,English,51,male,exit_quest,NA,58911,she is also go for that place so ask that,no difficult,good,NA,NA,NA,NA,NA,NA,NA,NA,NA,NA,NA,NA,NA,NA,NA,NA,NA,NA,NA,NA,NA
A1C7XI68SED8JE,english,35,female,consent,NA,29931,NA,NA,NA,NA,NA,NA,NA,NA,NA,NA,NA,NA,NA,NA,NA,NA,NA,NA,NA,NA,NA,NA,NA,NA
A1C7XI68SED8JE,english,35,female,train,train_f,39429,0,0,0,1,NA,NA,NA,NA,NA,NA,NA,NA,NA,NA,NA,NA,NA,NA,NA,NA,NA,NA,NA,NA
A1C7XI68SED8JE,english,35,female,train,train_m,39903,0,0,1,0,NA,NA,NA,NA,NA,NA,NA,NA,NA,NA,NA,NA,NA,NA,NA,NA,NA,NA,NA,NA
A1C7XI68SED8JE,english,35,female,test,test_shoes,38899,1,1,1,0,"Stores A, B, C, D and E.",Stores A and B.,Store E.,exh,ms-h,mo-l,1,0,1,1,0,0,1,1,0,1,1,0,0,0
A1C7XI68SED8JE,english,35,female,test,test_coffee,21350,1,1,1,0,Cafe E.,"Cafes A, B, C, D and E.",Cafe A.,mo-l,exh,mo-h,1,1,1,0,0,0,1,1,1,1,0,0,0,0
A1C7XI68SED8JE,english,35,female,control,control_what,19325,1,1,0,0,NA,NA,NA,NA,NA,NA,NA,1,1,0,0,0,1,1,1,1,0,0,0,0
A1C7XI68SED8JE,english,35,female,test,test_books,20586,1,1,1,0,Bookstores A and B.,"Bookstores A, B, C, D and E.",Bookstores D and E.,ms-h,exh,ms-l,1,0,0,1,1,0,1,1,0,0,1,1,0,0
A1C7XI68SED8JE,english,35,female,test,test_hair,17740,1,1,1,0,Stylists D and E.,Stylists A and B.,"Stylists A, B, C, D and E.",ms-l,ms-h,exh,1,0,0,1,1,0,1,1,0,0,1,1,0,0
A1C7XI68SED8JE,english,35,female,control,control_why,33433,1,0,0,0,NA,NA,NA,NA,NA,NA,NA,0,0,1,1,0,1,1,0,0,1,1,0,0
A1C7XI68SED8JE,english,35,female,test,test_yarn,19551,1,1,1,0,Stall A.,Stalls A and B.,Stall E.,mo-h,ms-h,mo-l,0,1,1,1,0,0,1,0,1,1,1,0,0,0
A1C7XI68SED8JE,english,35,female,control,control_how,23026,0,0,1,0,NA,NA,NA,NA,NA,NA,NA,1,1,1,0,0,1,0,1,1,1,0,0,0
A1C7XI68SED8JE,english,35,female,test,test_dentist,12873,0,1,0,0,Dentist F.,Dentists D and E.,Dentist E.,fa,ms-l,mo-l,0,0,1,0,1,0,1,0,0,0,0,1,0,0
A1C7XI68SED8JE,english,35,female,control,control_when,21163,1,1,0,0,NA,NA,NA,NA,NA,NA,NA,0,1,0,1,0,1,0,0,0,0,1,0,0
A1C7XI68SED8JE,english,35,female,exit_quest,NA,27099,no%2C it's the same thing,,,NA,NA,NA,NA,NA,NA,NA,NA,NA,NA,NA,NA,NA,NA,NA,NA,NA,NA,NA,NA,NA
A15340BRCER2UO,English,38,male,consent,NA,39463,NA,NA,NA,NA,NA,NA,NA,NA,NA,NA,NA,NA,NA,NA,NA,NA,NA,NA,NA,NA,NA,NA,NA,NA
A15340BRCER2UO,English,38,male,train,train_f,25302,0,0,0,1,NA,NA,NA,NA,NA,NA,NA,NA,NA,NA,NA,NA,NA,NA,NA,NA,NA,NA,NA,NA
A15340BRCER2UO,English,38,male,train,train_m,22346,0,0,1,0,NA,NA,NA,NA,NA,NA,NA,NA,NA,NA,NA,NA,NA,NA,NA,NA,NA,NA,NA,NA
A15340BRCER2UO,English,38,male,test,test_hair,42898,0,1,0,0,Stylist F.,Stylist A.,Stylists D and E.,fa,mo-h,ms-l,0,1,0,0,1,0,1,0,1,0,0,0,0,0
A15340BRCER2UO,English,38,male,test,test_shoes,16610,1,0,0,0,Store A.,"Stores A, B, C, D and E.",Stores D and E.,mo-h,exh,ms-l,1,1,0,0,1,0,1,0,1,0,0,0,0,0
A15340BRCER2UO,English,38,male,control,control_how,24107,1,1,1,0,NA,NA,NA,NA,NA,NA,NA,1,0,0,1,0,1,0,1,0,0,0,0,0
A15340BRCER2UO,English,38,male,test,test_coffee,13939,1,0,0,0,"Cafes A, B, C, D and E.",Cafe E.,Cafe F.,exh,mo-l,fa,1,0,1,0,0,0,1,1,0,0,0,0,0,0
A15340BRCER2UO,English,38,male,test,test_yarn,15443,1,0,0,0,Stall A.,Stalls A and B.,Stall F.,mo-h,ms-h,fa,0,1,0,1,0,0,1,0,1,0,0,0,0,0
A15340BRCER2UO,English,38,male,control,control_why,20191,1,0,0,0,NA,NA,NA,NA,NA,NA,NA,1,0,1,0,0,1,0,1,0,0,0,0,0
A15340BRCER2UO,English,38,male,test,test_dentist,7121,1,0,0,0,Dentist A.,Dentists D and E.,Dentist F.,mo-h,ms-l,fa,0,1,0,0,1,0,1,0,1,0,0,0,0,0
A15340BRCER2UO,English,38,male,control,control_what,7587,1,0,0,0,NA,NA,NA,NA,NA,NA,NA,1,0,0,1,0,1,0,1,0,0,0,0,0
A15340BRCER2UO,English,38,male,test,test_books,9974,0,1,0,0,Bookstore E.,Bookstores A and B.,"Bookstores A, B, C, D and E.",mo-l,ms-h,exh,1,0,1,1,0,0,1,0,0,0,1,0,0,0
A15340BRCER2UO,English,38,male,control,control_when,31465,0,0,1,0,NA,NA,NA,NA,NA,NA,NA,0,1,1,0,0,1,0,0,0,1,0,0,0
A15340BRCER2UO,English,38,male,exit_quest,NA,53222,No%2C to me they both mean the same thing,It was fine. A little strange and took some concentration%2C but nothing too difficult,No further comment%2C thanks,NA,NA,NA,NA,NA,NA,NA,NA,NA,NA,NA,NA,NA,NA,NA,NA,NA,NA,NA,NA,NA
AL5UXD1GLG4X0,English,34,female,consent,NA,41492,NA,NA,NA,NA,NA,NA,NA,NA,NA,NA,NA,NA,NA,NA,NA,NA,NA,NA,NA,NA,NA,NA,NA,NA
AL5UXD1GLG4X0,English,34,female,train,train_m,30787,0,1,0,0,NA,NA,NA,NA,NA,NA,NA,NA,NA,NA,NA,NA,NA,NA,NA,NA,NA,NA,NA,NA
AL5UXD1GLG4X0,English,34,female,train,train_f,40157,0,0,0,1,NA,NA,NA,NA,NA,NA,NA,NA,NA,NA,NA,NA,NA,NA,NA,NA,NA,NA,NA,NA
AL5UXD1GLG4X0,English,34,female,test,test_shoes,64706,1,0,0,0,Stores A and B.,Store E.,Stores D and E.,ms-h,mo-l,ms-l,0,0,1,1,1,0,1,0,0,0,1,0,0,0
AL5UXD1GLG4X0,English,34,female,test,test_books,33536,1,0,0,0,Bookstores A and B.,Bookstore F.,"Bookstores A, B, C, D and E.",ms-h,fa,exh,1,0,0,1,0,0,1,0,0,0,1,0,0,0
AL5UXD1GLG4X0,English,34,female,control,control_why,24101,1,0,0,0,NA,NA,NA,NA,NA,NA,NA,0,0,1,0,0,1,0,0,0,1,0,0,0
AL5UXD1GLG4X0,English,34,female,test,test_yarn,25074,1,0,0,0,Stall A.,Stall E.,Stalls D and E.,mo-h,mo-l,ms-l,0,1,1,0,1,0,1,0,1,0,0,0,0,0
AL5UXD1GLG4X0,English,34,female,control,control_when,53100,0,1,1,0,NA,NA,NA,NA,NA,NA,NA,1,1,0,1,0,1,0,1,0,0,0,0,0
AL5UXD1GLG4X0,English,34,female,test,test_coffee,22202,0,0,1,0,Cafe E.,Cafes D and E.,Cafe A.,mo-l,ms-l,mo-h,0,1,1,0,1,0,1,0,1,0,0,0,0,0
AL5UXD1GLG4X0,English,34,female,test,test_hair,14873,0,1,0,0,Stylist E.,"Stylists A, B, C, D and E.",Stylist F.,mo-l,exh,fa,1,0,1,0,0,0,1,1,0,0,0,0,0,0
AL5UXD1GLG4X0,English,34,female,control,control_what,15509,1,0,0,0,NA,NA,NA,NA,NA,NA,NA,0,1,0,0,0,1,1,0,0,0,0,0,0
AL5UXD1GLG4X0,English,34,female,test,test_dentist,13567,1,0,0,0,Dentist A.,Dentists A and B.,Dentists D and E.,mo-h,ms-h,ms-l,0,1,0,1,1,0,1,0,1,0,0,0,0,0
AL5UXD1GLG4X0,English,34,female,control,control_how,21468,1,0,1,0,NA,NA,NA,NA,NA,NA,NA,1,0,1,1,0,1,0,1,0,0,0,0,0
AL5UXD1GLG4X0,English,34,female,exit_quest,NA,50414,no%2C answer would be the same,not too difficult. Just had to pay attention,it was interesting,NA,NA,NA,NA,NA,NA,NA,NA,NA,NA,NA,NA,NA,NA,NA,NA,NA,NA,NA,NA,NA
A17DXR1QC8GWL8,ENGLISH,33,female,consent,NA,10542,NA,NA,NA,NA,NA,NA,NA,NA,NA,NA,NA,NA,NA,NA,NA,NA,NA,NA,NA,NA,NA,NA,NA,NA
A17DXR1QC8GWL8,ENGLISH,33,female,train,train_f,23362,0,0,0,1,NA,NA,NA,NA,NA,NA,NA,NA,NA,NA,NA,NA,NA,NA,NA,NA,NA,NA,NA,NA
A17DXR1QC8GWL8,ENGLISH,33,female,train,train_m,24515,0,0,1,0,NA,NA,NA,NA,NA,NA,NA,NA,NA,NA,NA,NA,NA,NA,NA,NA,NA,NA,NA,NA
A17DXR1QC8GWL8,ENGLISH,33,female,test,test_dentist,28134,0,0,0,1,Dentist A.,Dentists D and E.,Dentist E.,mo-h,ms-l,mo-l,0,1,1,0,1,0,1,0,0,0,0,0,0,1
A17DXR1QC8GWL8,ENGLISH,33,female,test,test_yarn,32398,0,0,0,1,Stall A.,"Stalls A, B, C, D and E.",Stalls A and B.,mo-h,exh,ms-h,1,1,0,1,0,0,1,0,0,0,0,0,0,1
A17DXR1QC8GWL8,ENGLISH,33,female,control,control_how,21143,0,1,0,0,NA,NA,NA,NA,NA,NA,NA,1,0,1,0,0,1,0,0,0,0,0,0,1
A17DXR1QC8GWL8,ENGLISH,33,female,test,test_shoes,17541,0,0,0,1,Store A.,Store E.,Stores A and B.,mo-h,mo-l,ms-h,0,1,1,1,0,0,1,0,0,0,0,0,0,1
A17DXR1QC8GWL8,ENGLISH,33,female,control,control_what,11509,1,0,0,0,NA,NA,NA,NA,NA,NA,NA,1,1,1,0,0,1,0,0,0,0,0,0,1
A17DXR1QC8GWL8,ENGLISH,33,female,test,test_coffee,13317,0,0,0,1,Cafe F.,Cafes D and E.,Cafe A.,fa,ms-l,mo-h,0,1,0,0,1,0,1,0,0,0,0,0,0,1
A17DXR1QC8GWL8,ENGLISH,33,female,test,test_hair,13750,0,0,0,1,Stylists A and B.,Stylists D and E.,Stylist F.,ms-h,ms-l,fa,0,0,0,1,1,0,1,0,0,0,0,0,0,1
A17DXR1QC8GWL8,ENGLISH,33,female,control,control_when,23877,0,0,0,1,NA,NA,NA,NA,NA,NA,NA,0,0,1,1,0,1,0,0,0,0,0,0,1
A17DXR1QC8GWL8,ENGLISH,33,female,test,test_books,17478,0,0,0,1,Bookstores D and E.,Bookstore E.,Bookstores A and B.,ms-l,mo-l,ms-h,0,0,1,1,1,0,1,0,0,0,0,0,0,1
A17DXR1QC8GWL8,ENGLISH,33,female,control,control_why,20352,1,1,0,0,NA,NA,NA,NA,NA,NA,NA,0,1,1,1,0,1,0,0,0,0,0,0,1
A17DXR1QC8GWL8,ENGLISH,33,female,exit_quest,NA,78934,No%2C in essence it is the same question,A little%2C some of the questions were ambiguous. For example%2C none of the acquaintances could have been absolutely sure were (e.g.) someone got their knitting yarn from unless they had seen it or heard testimony. So we can't say for sure that they know.,no,NA,NA,NA,NA,NA,NA,NA,NA,NA,NA,NA,NA,NA,NA,NA,NA,NA,NA,NA,NA,NA
A55V2U9UG3Z47,English,38,female,consent,NA,32343,NA,NA,NA,NA,NA,NA,NA,NA,NA,NA,NA,NA,NA,NA,NA,NA,NA,NA,NA,NA,NA,NA,NA,NA
A55V2U9UG3Z47,English,38,female,train,train_f,25977,0,0,0,1,NA,NA,NA,NA,NA,NA,NA,NA,NA,NA,NA,NA,NA,NA,NA,NA,NA,NA,NA,NA
A55V2U9UG3Z47,English,38,female,train,train_m,24656,0,0,1,0,NA,NA,NA,NA,NA,NA,NA,NA,NA,NA,NA,NA,NA,NA,NA,NA,NA,NA,NA,NA
A55V2U9UG3Z47,English,38,female,test,test_dentist,38172,0,0,0,1,Dentist A.,"Dentists A, B, C, D and E.",Dentists D and E.,mo-h,exh,ms-l,1,1,0,0,1,0,1,0,0,0,0,0,0,1
A55V2U9UG3Z47,English,38,female,test,test_coffee,37618,0,1,0,0,Cafe F.,Cafes A and B.,Cafe E.,fa,ms-h,mo-l,0,0,1,1,0,0,1,0,0,0,1,0,0,0
A55V2U9UG3Z47,English,38,female,control,control_why,16654,1,1,0,0,NA,NA,NA,NA,NA,NA,NA,0,1,1,0,0,1,0,0,0,1,0,0,0
A55V2U9UG3Z47,English,38,female,test,test_books,19340,1,0,0,0,Bookstore A.,Bookstore F.,Bookstore E.,mo-h,fa,mo-l,0,1,1,0,0,0,1,0,1,0,0,0,0,0
A55V2U9UG3Z47,English,38,female,test,test_shoes,20945,0,1,0,0,Store F.,Stores A and B.,Store E.,fa,ms-h,mo-l,0,0,1,1,0,0,1,0,0,0,1,0,0,0
A55V2U9UG3Z47,English,38,female,control,control_what,11738,1,0,0,0,NA,NA,NA,NA,NA,NA,NA,0,1,1,0,0,1,0,0,0,1,0,0,0
A55V2U9UG3Z47,English,38,female,test,test_hair,17692,0,1,0,0,Stylists D and E.,Stylist A.,Stylists A and B.,ms-l,mo-h,ms-h,0,1,0,1,1,0,1,0,1,0,0,0,0,0
A55V2U9UG3Z47,English,38,female,control,control_how,21411,0,0,1,0,NA,NA,NA,NA,NA,NA,NA,1,0,1,1,0,1,0,1,0,0,0,0,0
A55V2U9UG3Z47,English,38,female,test,test_yarn,27010,0,0,1,0,Stall E.,"Stalls A, B, C, D and E.",Stall A.,mo-l,exh,mo-h,1,1,1,0,0,0,1,0,1,0,0,0,0,0
A55V2U9UG3Z47,English,38,female,control,control_when,27572,0,0,1,0,NA,NA,NA,NA,NA,NA,NA,1,1,0,0,0,1,0,1,0,0,0,0,0
A55V2U9UG3Z47,English,38,female,exit_quest,NA,36054,No%2C I feel both sentences could be used interchangeably. ,No%2C it was actually very interesting to complete. ,,NA,NA,NA,NA,NA,NA,NA,NA,NA,NA,NA,NA,NA,NA,NA,NA,NA,NA,NA,NA,NA
A35BY30TC8WCL4,English,29,male,consent,NA,27200,NA,NA,NA,NA,NA,NA,NA,NA,NA,NA,NA,NA,NA,NA,NA,NA,NA,NA,NA,NA,NA,NA,NA,NA
A35BY30TC8WCL4,English,29,male,train,train_f,17200,0,0,0,1,NA,NA,NA,NA,NA,NA,NA,NA,NA,NA,NA,NA,NA,NA,NA,NA,NA,NA,NA,NA
A35BY30TC8WCL4,English,29,male,train,train_m,29100,0,1,1,0,NA,NA,NA,NA,NA,NA,NA,NA,NA,NA,NA,NA,NA,NA,NA,NA,NA,NA,NA,NA
A35BY30TC8WCL4,English,29,male,test,test_yarn,26800,1,1,1,0,"Stalls A, B, C, D and E.",Stall A.,Stall F.,exh,mo-h,fa,1,1,0,0,0,0,1,1,1,0,0,0,0,0
A35BY30TC8WCL4,English,29,male,test,test_shoes,25100,0,0,0,1,Stores D and E.,Store A.,Store E.,ms-l,mo-h,mo-l,0,1,1,0,1,0,1,0,0,0,0,0,0,1
A35BY30TC8WCL4,English,29,male,control,control_why,15600,1,1,0,0,NA,NA,NA,NA,NA,NA,NA,1,1,0,1,0,1,0,0,0,0,0,0,1
A35BY30TC8WCL4,English,29,male,test,test_coffee,11500,0,0,0,1,"Cafes A, B, C, D and E.",Cafe A.,Cafes D and E.,exh,mo-h,ms-l,1,1,0,0,1,0,1,0,0,0,0,0,0,1
A35BY30TC8WCL4,English,29,male,control,control_how,31200,0,0,1,0,NA,NA,NA,NA,NA,NA,NA,1,0,0,1,0,1,0,0,0,0,0,0,1
A35BY30TC8WCL4,English,29,male,test,test_dentist,8500,0,0,0,1,Dentists D and E.,Dentist A.,Dentists A and B.,ms-l,mo-h,ms-h,0,1,0,1,1,0,1,0,0,0,0,0,0,1
A35BY30TC8WCL4,English,29,male,test,test_hair,6700,0,0,0,1,"Stylists A, B, C, D and E.",Stylists D and E.,Stylists A and B.,exh,ms-l,ms-h,1,0,0,1,1,0,1,0,0,0,0,0,0,1
A35BY30TC8WCL4,English,29,male,control,control_what,15200,1,0,0,0,NA,NA,NA,NA,NA,NA,NA,0,0,1,1,0,1,0,0,0,0,0,0,1
A35BY30TC8WCL4,English,29,male,test,test_books,56000,0,0,0,1,Bookstore A.,Bookstores A and B.,Bookstores D and E.,mo-h,ms-h,ms-l,0,1,0,1,1,0,1,0,0,0,0,0,0,1
A35BY30TC8WCL4,English,29,male,control,control_when,45300,0,0,0,1,NA,NA,NA,NA,NA,NA,NA,1,0,1,1,0,1,0,0,0,0,0,0,1
A35BY30TC8WCL4,English,29,male,exit_quest,NA,102600,No. I don't see much difference between the two. If the traveler said%2C where should I go%2C it would be different%2C but where can I is asking the same thing as the first question.,Don't think so%2C was just straightforward.,Nope.,NA,NA,NA,NA,NA,NA,NA,NA,NA,NA,NA,NA,NA,NA,NA,NA,NA,NA,NA,NA,NA
A39PWM9C4U0TEP,English,40,male,consent,NA,63155,NA,NA,NA,NA,NA,NA,NA,NA,NA,NA,NA,NA,NA,NA,NA,NA,NA,NA,NA,NA,NA,NA,NA,NA
A39PWM9C4U0TEP,English,40,male,train,train_f,52091,0,0,0,1,NA,NA,NA,NA,NA,NA,NA,NA,NA,NA,NA,NA,NA,NA,NA,NA,NA,NA,NA,NA
A39PWM9C4U0TEP,English,40,male,train,train_m,39191,0,1,0,0,NA,NA,NA,NA,NA,NA,NA,NA,NA,NA,NA,NA,NA,NA,NA,NA,NA,NA,NA,NA
A39PWM9C4U0TEP,English,40,male,test,test_books,35357,1,1,1,0,"Bookstores A, B, C, D and E.",Bookstores D and E.,Bookstore A.,exh,ms-l,mo-h,1,1,0,0,1,0,1,1,1,0,0,1,0,0
A39PWM9C4U0TEP,English,40,male,test,test_yarn,26005,1,1,1,0,Stalls D and E.,Stall F.,Stall E.,ms-l,fa,mo-l,0,0,1,0,1,0,1,0,0,1,0,1,0,0
A39PWM9C4U0TEP,English,40,male,control,control_what,38592,1,1,0,0,NA,NA,NA,NA,NA,NA,NA,0,1,0,1,0,1,0,0,1,0,1,0,0
A39PWM9C4U0TEP,English,40,male,test,test_coffee,18726,1,1,1,0,Cafe A.,"Cafes A, B, C, D and E.",Cafes D and E.,mo-h,exh,ms-l,1,1,0,0,1,0,1,1,1,0,0,1,0,0
A39PWM9C4U0TEP,English,40,male,test,test_dentist,32512,0,0,0,1,Dentist A.,Dentist E.,Dentists D and E.,mo-h,mo-l,ms-l,0,1,1,0,1,0,1,0,0,0,0,0,0,1
A39PWM9C4U0TEP,English,40,male,control,control_when,34543,0,0,0,1,NA,NA,NA,NA,NA,NA,NA,1,1,0,1,0,1,0,0,0,0,0,0,1
A39PWM9C4U0TEP,English,40,male,test,test_shoes,12931,1,1,1,0,Stores D and E.,Store E.,Stores A and B.,ms-l,mo-l,ms-h,0,0,1,1,1,0,1,0,0,1,1,1,0,0
A39PWM9C4U0TEP,English,40,male,control,control_why,23106,1,1,0,0,NA,NA,NA,NA,NA,NA,NA,0,1,1,1,0,1,0,0,1,1,1,0,0
A39PWM9C4U0TEP,English,40,male,test,test_hair,12036,1,1,1,0,Stylists D and E.,Stylists A and B.,"Stylists A, B, C, D and E.",ms-l,ms-h,exh,1,0,0,1,1,0,1,1,0,0,1,1,0,0
A39PWM9C4U0TEP,English,40,male,control,control_how,26698,1,0,1,0,NA,NA,NA,NA,NA,NA,NA,0,0,1,1,0,1,1,0,0,1,1,0,0
A39PWM9C4U0TEP,English,40,male,exit_quest,NA,81076,Yes%2C I think the first question would just to be list all places that serve brunch.  The second question I would answer with my opinion on what it worth checking out and what is not.,A little%2C I wasn't sure if I was correct or not.,This was interesting.,NA,NA,NA,NA,NA,NA,NA,NA,NA,NA,NA,NA,NA,NA,NA,NA,NA,NA,NA,NA,NA
A1WLRHL0U23N38,English,28,female,consent,NA,19758,NA,NA,NA,NA,NA,NA,NA,NA,NA,NA,NA,NA,NA,NA,NA,NA,NA,NA,NA,NA,NA,NA,NA,NA
A1WLRHL0U23N38,English,28,female,train,train_m,95862,0,1,1,0,NA,NA,NA,NA,NA,NA,NA,NA,NA,NA,NA,NA,NA,NA,NA,NA,NA,NA,NA,NA
A1WLRHL0U23N38,English,28,female,train,train_f,25242,0,0,0,1,NA,NA,NA,NA,NA,NA,NA,NA,NA,NA,NA,NA,NA,NA,NA,NA,NA,NA,NA,NA
A1WLRHL0U23N38,English,28,female,test,test_dentist,56570,0,0,1,0,Dentists A and B.,Dentist E.,"Dentists A, B, C, D and E.",ms-h,mo-l,exh,1,0,1,1,0,0,1,1,0,0,0,0,0,0
A1WLRHL0U23N38,English,28,female,test,test_books,43883,1,0,0,0,"Bookstores A, B, C, D and E.",Bookstores D and E.,Bookstores A and B.,exh,ms-l,ms-h,1,0,0,1,1,0,1,1,0,0,0,0,0,0
A1WLRHL0U23N38,English,28,female,control,control_when,24028,0,0,0,1,NA,NA,NA,NA,NA,NA,NA,0,0,1,1,0,1,1,0,0,0,0,0,0
A1WLRHL0U23N38,English,28,female,test,test_hair,32979,0,0,1,0,Stylist E.,Stylist F.,Stylists D and E.,mo-l,fa,ms-l,0,0,1,0,1,0,1,0,0,0,0,1,0,0
A1WLRHL0U23N38,English,28,female,control,control_why,12773,0,1,0,0,NA,NA,NA,NA,NA,NA,NA,0,1,0,1,0,1,0,0,0,0,1,0,0
A1WLRHL0U23N38,English,28,female,test,test_yarn,8328,1,0,0,0,Stall F.,Stall E.,Stall A.,fa,mo-l,mo-h,0,1,1,0,0,0,1,0,0,0,0,0,0,0
A1WLRHL0U23N38,English,28,female,test,test_coffee,23546,1,1,1,0,Cafe E.,Cafes A and B.,Cafe F.,mo-l,ms-h,fa,0,0,1,1,0,0,1,0,0,1,1,0,0,0
A1WLRHL0U23N38,English,28,female,control,control_how,8127,0,0,1,0,NA,NA,NA,NA,NA,NA,NA,0,1,1,0,0,1,0,0,1,1,0,0,0
A1WLRHL0U23N38,English,28,female,test,test_shoes,8369,0,0,1,0,Store A.,Store E.,"Stores A, B, C, D and E.",mo-h,mo-l,exh,1,1,1,0,0,0,1,1,0,0,0,0,0,0
A1WLRHL0U23N38,English,28,female,control,control_what,12011,1,0,0,0,NA,NA,NA,NA,NA,NA,NA,1,1,0,0,0,1,1,0,0,0,0,0,0
A1WLRHL0U23N38,English,28,female,exit_quest,NA,74927,No%2C because both are asking the same thing about where brunch is served.,Not really. Just plain English is simple.,none,NA,NA,NA,NA,NA,NA,NA,NA,NA,NA,NA,NA,NA,NA,NA,NA,NA,NA,NA,NA,NA
AW9WE7LS8R57M,english,30,male,consent,NA,65535,NA,NA,NA,NA,NA,NA,NA,NA,NA,NA,NA,NA,NA,NA,NA,NA,NA,NA,NA,NA,NA,NA,NA,NA
AW9WE7LS8R57M,english,30,male,train,train_f,45666,0,0,0,1,NA,NA,NA,NA,NA,NA,NA,NA,NA,NA,NA,NA,NA,NA,NA,NA,NA,NA,NA,NA
AW9WE7LS8R57M,english,30,male,train,train_m,83418,0,0,1,0,NA,NA,NA,NA,NA,NA,NA,NA,NA,NA,NA,NA,NA,NA,NA,NA,NA,NA,NA,NA
AW9WE7LS8R57M,english,30,male,test,test_shoes,85472,0,1,0,0,Stores D and E.,Stores A and B.,Store E.,ms-l,ms-h,mo-l,0,0,1,1,1,0,1,0,0,0,1,0,0,0
AW9WE7LS8R57M,english,30,male,control,control_when,67621,0,0,1,0,NA,NA,NA,NA,NA,NA,NA,0,1,1,1,0,1,0,0,0,1,0,0,0
AW9WE7LS8R57M,english,30,male,test,test_coffee,24333,0,0,1,0,Cafes D and E.,Cafe F.,Cafe A.,ms-l,fa,mo-h,0,1,0,0,1,0,1,0,1,0,0,0,0,0
AW9WE7LS8R57M,english,30,male,test,test_books,7887,0,1,0,0,Bookstores A and B.,Bookstores D and E.,Bookstore A.,ms-h,ms-l,mo-h,0,1,0,1,1,0,1,0,0,0,0,1,0,0
AW9WE7LS8R57M,english,30,male,control,control_what,14694,0,1,1,0,NA,NA,NA,NA,NA,NA,NA,1,0,1,1,0,1,0,0,0,0,1,0,0
AW9WE7LS8R57M,english,30,male,test,test_hair,16054,1,0,0,0,Stylist E.,Stylist A.,Stylists D and E.,mo-l,mo-h,ms-l,0,1,1,0,1,0,1,0,0,1,0,0,0,0
AW9WE7LS8R57M,english,30,male,control,control_how,15416,0,0,1,0,NA,NA,NA,NA,NA,NA,NA,1,1,0,1,0,1,0,0,1,0,0,0,0
AW9WE7LS8R57M,english,30,male,test,test_yarn,11806,0,1,0,0,Stall A.,Stalls A and B.,Stalls D and E.,mo-h,ms-h,ms-l,0,1,0,1,1,0,1,0,0,0,1,0,0,0
AW9WE7LS8R57M,english,30,male,test,test_dentist,4333,0,0,1,0,Dentist F.,Dentist A.,Dentists D and E.,fa,mo-h,ms-l,0,1,0,0,1,0,1,0,0,0,0,1,0,0
AW9WE7LS8R57M,english,30,male,control,control_why,5038,0,0,1,0,NA,NA,NA,NA,NA,NA,NA,1,0,0,1,0,1,0,0,0,0,1,0,0
AW9WE7LS8R57M,english,30,male,exit_quest,NA,90457,wherever she can go to brunch,no this is not difficult,good,NA,NA,NA,NA,NA,NA,NA,NA,NA,NA,NA,NA,NA,NA,NA,NA,NA,NA,NA,NA,NA
A1PZIN8H1VI6SY,english,40,male,consent,NA,25265,NA,NA,NA,NA,NA,NA,NA,NA,NA,NA,NA,NA,NA,NA,NA,NA,NA,NA,NA,NA,NA,NA,NA,NA
A1PZIN8H1VI6SY,english,40,male,train,train_f,76513,0,0,0,1,NA,NA,NA,NA,NA,NA,NA,NA,NA,NA,NA,NA,NA,NA,NA,NA,NA,NA,NA,NA
A1PZIN8H1VI6SY,english,40,male,train,train_m,61828,0,0,1,0,NA,NA,NA,NA,NA,NA,NA,NA,NA,NA,NA,NA,NA,NA,NA,NA,NA,NA,NA,NA
A1PZIN8H1VI6SY,english,40,male,test,test_coffee,64591,0,0,0,1,Cafes A and B.,Cafe F.,Cafes D and E.,ms-h,fa,ms-l,0,0,0,1,1,0,1,0,0,0,0,0,0,1
A1PZIN8H1VI6SY,english,40,male,test,test_shoes,27004,1,0,0,1,Stores D and E.,Store E.,Store F.,ms-l,mo-l,fa,0,0,1,0,1,0,1,0,0,0,0,1,0,1
A1PZIN8H1VI6SY,english,40,male,control,control_when,31013,0,1,0,0,NA,NA,NA,NA,NA,NA,NA,0,1,0,1,0,1,0,0,0,0,1,0,1
A1PZIN8H1VI6SY,english,40,male,test,test_dentist,16461,0,1,0,0,"Dentists A, B, C, D and E.",Dentists A and B.,Dentist F.,exh,ms-h,fa,1,0,0,1,0,0,1,0,0,0,1,0,0,0
A1PZIN8H1VI6SY,english,40,male,test,test_books,12076,1,0,0,0,Bookstore A.,Bookstores A and B.,Bookstore E.,mo-h,ms-h,mo-l,0,1,1,1,0,0,1,0,1,0,0,0,0,0
A1PZIN8H1VI6SY,english,40,male,control,control_what,18642,0,0,0,1,NA,NA,NA,NA,NA,NA,NA,1,1,1,0,0,1,0,1,0,0,0,0,0
A1PZIN8H1VI6SY,english,40,male,test,test_yarn,7523,0,1,1,0,Stalls D and E.,Stalls A and B.,Stall F.,ms-l,ms-h,fa,0,0,0,1,1,0,1,0,0,0,1,0,0,0
A1PZIN8H1VI6SY,english,40,male,control,control_how,3382,0,1,0,0,NA,NA,NA,NA,NA,NA,NA,0,0,1,1,0,1,0,0,0,1,0,0,0
A1PZIN8H1VI6SY,english,40,male,test,test_hair,5380,0,0,0,1,Stylist A.,Stylists A and B.,Stylists D and E.,mo-h,ms-h,ms-l,0,1,0,1,1,0,1,0,0,0,0,0,0,1
A1PZIN8H1VI6SY,english,40,male,control,control_why,28159,0,0,0,1,NA,NA,NA,NA,NA,NA,NA,1,0,1,1,0,1,0,0,0,0,0,0,1
A1PZIN8H1VI6SY,english,40,male,exit_quest,NA,118764,because its more gentil to ask where can i go for brunch in town than the other way to talk%2C allways we need to talk saft and easy to  the persons thats the better way to do the things in your life,very easy to do ,very good survey,NA,NA,NA,NA,NA,NA,NA,NA,NA,NA,NA,NA,NA,NA,NA,NA,NA,NA,NA,NA,NA
A173XG3NZ7JPT7,english,41,female,consent,NA,99167,NA,NA,NA,NA,NA,NA,NA,NA,NA,NA,NA,NA,NA,NA,NA,NA,NA,NA,NA,NA,NA,NA,NA,NA
A173XG3NZ7JPT7,english,41,female,train,train_f,37633,0,0,0,1,NA,NA,NA,NA,NA,NA,NA,NA,NA,NA,NA,NA,NA,NA,NA,NA,NA,NA,NA,NA
A173XG3NZ7JPT7,english,41,female,train,train_m,33990,0,0,1,0,NA,NA,NA,NA,NA,NA,NA,NA,NA,NA,NA,NA,NA,NA,NA,NA,NA,NA,NA,NA
A173XG3NZ7JPT7,english,41,female,test,test_books,39910,1,1,1,0,Bookstores D and E.,"Bookstores A, B, C, D and E.",Bookstore A.,ms-l,exh,mo-h,1,1,0,0,1,0,1,1,1,0,0,1,0,0
A173XG3NZ7JPT7,english,41,female,control,control_how,32008,1,1,1,0,NA,NA,NA,NA,NA,NA,NA,1,0,0,1,0,1,1,1,0,0,1,0,0
A173XG3NZ7JPT7,english,41,female,test,test_coffee,26180,1,1,1,0,Cafe A.,Cafes A and B.,Cafe E.,mo-h,ms-h,mo-l,0,1,1,1,0,0,1,0,1,1,1,0,0,0
A173XG3NZ7JPT7,english,41,female,test,test_dentist,23362,1,1,1,0,Dentist E.,"Dentists A, B, C, D and E.",Dentists A and B.,mo-l,exh,ms-h,1,0,1,1,0,0,1,1,0,1,1,0,0,0
A173XG3NZ7JPT7,english,41,female,control,control_why,35127,1,1,0,0,NA,NA,NA,NA,NA,NA,NA,0,1,1,0,0,1,1,0,1,1,0,0,0
A173XG3NZ7JPT7,english,41,female,test,test_yarn,24755,1,1,1,0,"Stalls A, B, C, D and E.",Stall F.,Stall E.,exh,fa,mo-l,1,0,1,0,0,0,1,1,0,1,0,0,0,0
A173XG3NZ7JPT7,english,41,female,control,control_when,37496,0,0,1,0,NA,NA,NA,NA,NA,NA,NA,0,1,0,0,0,1,1,0,1,0,0,0,0
A173XG3NZ7JPT7,english,41,female,test,test_hair,17558,1,1,1,0,Stylists D and E.,Stylist E.,Stylist A.,ms-l,mo-l,mo-h,0,1,1,0,1,0,1,0,1,1,0,1,0,0
A173XG3NZ7JPT7,english,41,female,test,test_shoes,22080,1,1,1,0,"Stores A, B, C, D and E.",Stores A and B.,Store A.,exh,ms-h,mo-h,1,1,0,1,0,0,1,1,1,0,1,0,0,0
A173XG3NZ7JPT7,english,41,female,control,control_what,18059,1,1,0,0,NA,NA,NA,NA,NA,NA,NA,1,0,1,0,0,1,1,1,0,1,0,0,0
A173XG3NZ7JPT7,english,41,female,exit_quest,NA,82484,No.  Both involve restaurants that would serve brunch.  If a restaurant serves brunch then that would be included in my response of where the traveler could go for brunch.,I don't think it was difficult but I think it is subjective so I think there could be different responses.,No.  Interesting.  Thank you.,NA,NA,NA,NA,NA,NA,NA,NA,NA,NA,NA,NA,NA,NA,NA,NA,NA,NA,NA,NA,NA
A10LLZZHZVGWRW,english,28,female,consent,NA,12614,NA,NA,NA,NA,NA,NA,NA,NA,NA,NA,NA,NA,NA,NA,NA,NA,NA,NA,NA,NA,NA,NA,NA,NA
A10LLZZHZVGWRW,english,28,female,train,train_f,26487,0,0,0,1,NA,NA,NA,NA,NA,NA,NA,NA,NA,NA,NA,NA,NA,NA,NA,NA,NA,NA,NA,NA
A10LLZZHZVGWRW,english,28,female,train,train_m,30313,0,0,0,1,NA,NA,NA,NA,NA,NA,NA,NA,NA,NA,NA,NA,NA,NA,NA,NA,NA,NA,NA,NA
A10LLZZHZVGWRW,english,28,female,test,test_books,24713,1,1,0,0,Bookstores D and E.,Bookstore E.,"Bookstores A, B, C, D and E.",ms-l,mo-l,exh,1,0,1,0,1,0,1,0,0,1,0,1,0,0
A10LLZZHZVGWRW,english,28,female,control,control_when,23521,0,1,1,0,NA,NA,NA,NA,NA,NA,NA,0,1,0,1,0,1,0,0,1,0,1,0,0
A10LLZZHZVGWRW,english,28,female,test,test_shoes,32778,1,0,1,0,Stores D and E.,Store A.,Store E.,ms-l,mo-h,mo-l,0,1,1,0,1,0,1,0,0,1,0,1,0,0
A10LLZZHZVGWRW,english,28,female,test,test_dentist,20330,0,0,0,1,Dentists D and E.,Dentist E.,Dentists A and B.,ms-l,mo-l,ms-h,0,0,1,1,1,0,1,0,0,0,0,0,0,1
A10LLZZHZVGWRW,english,28,female,control,control_what,45071,1,0,0,0,NA,NA,NA,NA,NA,NA,NA,0,1,1,1,0,1,0,0,0,0,0,0,1
A10LLZZHZVGWRW,english,28,female,test,test_yarn,15332,1,0,0,0,Stalls A and B.,Stalls D and E.,Stall E.,ms-h,ms-l,mo-l,0,0,1,1,1,0,1,0,0,0,1,0,0,0
A10LLZZHZVGWRW,english,28,female,control,control_why,25315,1,1,0,0,NA,NA,NA,NA,NA,NA,NA,0,1,1,1,0,1,0,0,0,1,0,0,0
A10LLZZHZVGWRW,english,28,female,test,test_hair,8668,1,1,0,0,Stylist A.,Stylists A and B.,Stylist F.,mo-h,ms-h,fa,0,1,0,1,0,0,1,0,1,0,1,0,0,0
A10LLZZHZVGWRW,english,28,female,test,test_coffee,17474,1,0,0,0,Cafes A and B.,Cafe F.,Cafes D and E.,ms-h,fa,ms-l,0,0,0,1,1,0,1,0,0,0,1,0,0,0
A10LLZZHZVGWRW,english,28,female,control,control_how,43999,0,1,1,0,NA,NA,NA,NA,NA,NA,NA,0,0,1,1,0,1,0,0,0,1,0,0,0
A10LLZZHZVGWRW,english,28,female,exit_quest,NA,65077,Yes - 'which restaurants serve brunch' is a very general question that will generate a long list whereas 'where should I go' will lead me to offer a few choice favorites.,a little bit challenging%2C but more because it was different than most surveys than anything in particular.,nope - thanks!,NA,NA,NA,NA,NA,NA,NA,NA,NA,NA,NA,NA,NA,NA,NA,NA,NA,NA,NA,NA,NA
A2541C8MY0BYV3,English,29,male,consent,NA,11258,NA,NA,NA,NA,NA,NA,NA,NA,NA,NA,NA,NA,NA,NA,NA,NA,NA,NA,NA,NA,NA,NA,NA,NA
A2541C8MY0BYV3,English,29,male,train,train_f,27850,0,0,0,1,NA,NA,NA,NA,NA,NA,NA,NA,NA,NA,NA,NA,NA,NA,NA,NA,NA,NA,NA,NA
A2541C8MY0BYV3,English,29,male,train,train_m,18317,0,0,1,0,NA,NA,NA,NA,NA,NA,NA,NA,NA,NA,NA,NA,NA,NA,NA,NA,NA,NA,NA,NA
A2541C8MY0BYV3,English,29,male,test,test_coffee,19928,0,1,1,0,Cafes D and E.,"Cafes A, B, C, D and E.",Cafe A.,ms-l,exh,mo-h,1,1,0,0,1,0,1,1,1,0,0,0,0,0
A2541C8MY0BYV3,English,29,male,test,test_yarn,12777,0,0,1,0,"Stalls A, B, C, D and E.",Stalls D and E.,Stalls A and B.,exh,ms-l,ms-h,1,0,0,1,1,0,1,0,0,0,1,0,0,0
A2541C8MY0BYV3,English,29,male,control,control_what,14393,1,1,0,0,NA,NA,NA,NA,NA,NA,NA,0,0,1,1,0,1,0,0,0,1,0,0,0
A2541C8MY0BYV3,English,29,male,test,test_shoes,8198,0,1,1,0,Store E.,Stores A and B.,Store A.,mo-l,ms-h,mo-h,0,1,1,1,0,0,1,0,1,0,1,0,0,0
A2541C8MY0BYV3,English,29,male,test,test_books,8290,0,0,1,0,Bookstore E.,"Bookstores A, B, C, D and E.",Bookstore A.,mo-l,exh,mo-h,1,1,1,0,0,0,1,0,1,0,0,0,0,0
A2541C8MY0BYV3,English,29,male,control,control_how,22362,0,0,1,0,NA,NA,NA,NA,NA,NA,NA,1,1,0,0,0,1,0,1,0,0,0,0,0
A2541C8MY0BYV3,English,29,male,test,test_hair,7023,1,1,0,0,Stylists A and B.,Stylist A.,Stylist E.,ms-h,mo-h,mo-l,0,1,1,1,0,0,1,0,1,0,1,0,0,0
A2541C8MY0BYV3,English,29,male,control,control_why,9584,1,0,0,0,NA,NA,NA,NA,NA,NA,NA,1,1,1,0,0,1,0,1,0,1,0,0,0
A2541C8MY0BYV3,English,29,male,test,test_dentist,11158,1,1,0,0,Dentist A.,Dentists A and B.,Dentist F.,mo-h,ms-h,fa,0,1,0,1,0,0,1,0,1,0,1,0,0,0
A2541C8MY0BYV3,English,29,male,control,control_when,21406,1,1,0,0,NA,NA,NA,NA,NA,NA,NA,1,0,1,0,0,1,0,1,0,1,0,0,0
A2541C8MY0BYV3,English,29,male,exit_quest,NA,32406,No. I think they both mean the same thing.,Yes because some of the answers sound the same.,No.,NA,NA,NA,NA,NA,NA,NA,NA,NA,NA,NA,NA,NA,NA,NA,NA,NA,NA,NA,NA,NA
A2GV053CR3O08G,ENGLISH,28,male,consent,NA,46273,NA,NA,NA,NA,NA,NA,NA,NA,NA,NA,NA,NA,NA,NA,NA,NA,NA,NA,NA,NA,NA,NA,NA,NA
A2GV053CR3O08G,ENGLISH,28,male,train,train_m,13602,1,1,1,1,NA,NA,NA,NA,NA,NA,NA,NA,NA,NA,NA,NA,NA,NA,NA,NA,NA,NA,NA,NA
A2GV053CR3O08G,ENGLISH,28,male,train,train_f,37076,0,0,0,1,NA,NA,NA,NA,NA,NA,NA,NA,NA,NA,NA,NA,NA,NA,NA,NA,NA,NA,NA,NA
A2GV053CR3O08G,ENGLISH,28,male,test,test_books,25757,0,0,1,0,Bookstore E.,Bookstores D and E.,Bookstore A.,mo-l,ms-l,mo-h,0,1,1,0,1,0,1,0,1,0,0,0,0,0
A2GV053CR3O08G,ENGLISH,28,male,test,test_shoes,14910,0,0,1,0,Store E.,Stores D and E.,Stores A and B.,mo-l,ms-l,ms-h,0,0,1,1,1,0,1,0,0,0,1,0,0,0
A2GV053CR3O08G,ENGLISH,28,male,control,control_why,16492,0,0,1,0,NA,NA,NA,NA,NA,NA,NA,0,1,1,1,0,1,0,0,0,1,0,0,0
A2GV053CR3O08G,ENGLISH,28,male,test,test_hair,9188,0,0,1,0,Stylist E.,Stylists A and B.,Stylists D and E.,mo-l,ms-h,ms-l,0,0,1,1,1,0,1,0,0,0,0,1,0,0
A2GV053CR3O08G,ENGLISH,28,male,test,test_dentist,5846,0,0,1,0,Dentists A and B.,Dentist F.,Dentist A.,ms-h,fa,mo-h,0,1,0,1,0,0,1,0,1,0,0,0,0,0
A2GV053CR3O08G,ENGLISH,28,male,control,control_when,7287,0,1,0,0,NA,NA,NA,NA,NA,NA,NA,1,0,1,0,0,1,0,1,0,0,0,0,0
A2GV053CR3O08G,ENGLISH,28,male,test,test_yarn,11405,0,0,1,0,Stalls A and B.,Stalls D and E.,Stall E.,ms-h,ms-l,mo-l,0,0,1,1,1,0,1,0,0,1,0,0,0,0
A2GV053CR3O08G,ENGLISH,28,male,control,control_what,8835,0,1,0,0,NA,NA,NA,NA,NA,NA,NA,0,1,1,1,0,1,0,0,1,0,0,0,0
A2GV053CR3O08G,ENGLISH,28,male,test,test_coffee,9324,0,0,1,0,Cafe A.,Cafes D and E.,Cafe F.,mo-h,ms-l,fa,0,1,0,0,1,0,1,0,0,0,0,0,0,0
A2GV053CR3O08G,ENGLISH,28,male,control,control_how,20847,0,0,1,0,NA,NA,NA,NA,NA,NA,NA,1,0,0,1,0,1,0,0,0,0,0,0,0
A2GV053CR3O08G,ENGLISH,28,male,exit_quest,NA,352710,With more spots than ever serving up the city’s favorite meal of the week%2C restaurants around Pittsburgh have taken brunching to the next level%2C offering so much more than bacon and eggs. From quiet cafés to bustling food halls%2C these best-of-the-best spots can help to satisfy your weekend morning cravings for French toast%2C eggs Benedict%2C and cocktails that were made for day-drinking.,NO,IT INTEREST TO KNOW MORE ,NA,NA,NA,NA,NA,NA,NA,NA,NA,NA,NA,NA,NA,NA,NA,NA,NA,NA,NA,NA,NA
A30UE6DWFNUCWX,English,29,female,consent,NA,36654,NA,NA,NA,NA,NA,NA,NA,NA,NA,NA,NA,NA,NA,NA,NA,NA,NA,NA,NA,NA,NA,NA,NA,NA
A30UE6DWFNUCWX,English,29,female,train,train_f,32685,0,0,0,1,NA,NA,NA,NA,NA,NA,NA,NA,NA,NA,NA,NA,NA,NA,NA,NA,NA,NA,NA,NA
A30UE6DWFNUCWX,English,29,female,train,train_m,39910,0,0,1,0,NA,NA,NA,NA,NA,NA,NA,NA,NA,NA,NA,NA,NA,NA,NA,NA,NA,NA,NA,NA
A30UE6DWFNUCWX,English,29,female,test,test_yarn,87776,0,0,0,1,Stall A.,Stalls D and E.,Stall E.,mo-h,ms-l,mo-l,0,1,1,0,1,0,1,0,0,0,0,0,0,1
A30UE6DWFNUCWX,English,29,female,test,test_shoes,27414,0,0,0,1,Store F.,Stores A and B.,Store E.,fa,ms-h,mo-l,0,0,1,1,0,0,1,0,0,0,0,0,0,1
A30UE6DWFNUCWX,English,29,female,control,control_what,29968,1,0,0,0,NA,NA,NA,NA,NA,NA,NA,0,1,1,0,0,1,0,0,0,0,0,0,1
A30UE6DWFNUCWX,English,29,female,test,test_books,23618,0,0,0,1,Bookstores D and E.,Bookstore A.,Bookstore F.,ms-l,mo-h,fa,0,1,0,0,1,0,1,0,0,0,0,0,0,1
A30UE6DWFNUCWX,English,29,female,test,test_dentist,20342,0,0,0,1,Dentist A.,Dentists D and E.,Dentists A and B.,mo-h,ms-l,ms-h,0,1,0,1,1,0,1,0,0,0,0,0,0,1
A30UE6DWFNUCWX,English,29,female,control,control_when,64264,0,1,0,0,NA,NA,NA,NA,NA,NA,NA,1,0,1,1,0,1,0,0,0,0,0,0,1
A30UE6DWFNUCWX,English,29,female,test,test_hair,19310,0,0,0,1,Stylist F.,Stylist A.,Stylists D and E.,fa,mo-h,ms-l,0,1,0,0,1,0,1,0,0,0,0,0,0,1
A30UE6DWFNUCWX,English,29,female,control,control_how,43648,0,1,1,0,NA,NA,NA,NA,NA,NA,NA,1,0,0,1,0,1,0,0,0,0,0,0,1
A30UE6DWFNUCWX,English,29,female,test,test_coffee,20613,0,0,0,1,Cafes A and B.,Cafe A.,Cafe E.,ms-h,mo-h,mo-l,0,1,1,1,0,0,1,0,0,0,0,0,0,1
A30UE6DWFNUCWX,English,29,female,control,control_why,31629,1,0,0,0,NA,NA,NA,NA,NA,NA,NA,1,1,1,0,0,1,0,0,0,0,0,0,1
A30UE6DWFNUCWX,English,29,female,exit_quest,NA,130580,I will answer it differently%2C since in first question s/he asked which are the restaurants that serve brunch%2C while if s/he asks second question I will answer with one or two restaurant names which are best for him/her according to me.,I didn't find it difficult at all. The short scenarios were easy to understand and so are the questions.,No.,NA,NA,NA,NA,NA,NA,NA,NA,NA,NA,NA,NA,NA,NA,NA,NA,NA,NA,NA,NA,NA
A2A3X2W4YS9X8A,English,38,male,consent,NA,43102,NA,NA,NA,NA,NA,NA,NA,NA,NA,NA,NA,NA,NA,NA,NA,NA,NA,NA,NA,NA,NA,NA,NA,NA
A2A3X2W4YS9X8A,English,38,male,train,train_f,51348,0,0,0,1,NA,NA,NA,NA,NA,NA,NA,NA,NA,NA,NA,NA,NA,NA,NA,NA,NA,NA,NA,NA
A2A3X2W4YS9X8A,English,38,male,train,train_m,42363,0,0,1,0,NA,NA,NA,NA,NA,NA,NA,NA,NA,NA,NA,NA,NA,NA,NA,NA,NA,NA,NA,NA
A2A3X2W4YS9X8A,English,38,male,test,test_books,39695,1,1,1,0,Bookstore F.,Bookstore E.,Bookstore A.,fa,mo-l,mo-h,0,1,1,0,0,0,1,0,1,1,0,0,0,0
A2A3X2W4YS9X8A,English,38,male,test,test_coffee,43084,1,1,1,0,Cafes D and E.,Cafe E.,Cafe A.,ms-l,mo-l,mo-h,0,1,1,0,1,0,1,0,1,1,0,1,0,0
A2A3X2W4YS9X8A,English,38,male,control,control_why,26261,1,1,0,0,NA,NA,NA,NA,NA,NA,NA,1,1,0,1,0,1,0,1,1,0,1,0,0
A2A3X2W4YS9X8A,English,38,male,test,test_dentist,40514,0,0,0,1,Dentist A.,Dentists A and B.,Dentists D and E.,mo-h,ms-h,ms-l,0,1,0,1,1,0,1,0,0,0,0,0,0,1
A2A3X2W4YS9X8A,English,38,male,test,test_hair,44225,0,0,0,1,Stylist F.,Stylists D and E.,Stylist E.,fa,ms-l,mo-l,0,0,1,0,1,0,1,0,0,0,0,0,0,1
A2A3X2W4YS9X8A,English,38,male,control,control_what,25099,1,0,0,0,NA,NA,NA,NA,NA,NA,NA,0,1,0,1,0,1,0,0,0,0,0,0,1
A2A3X2W4YS9X8A,English,38,male,test,test_shoes,23179,0,0,0,1,Store E.,Stores D and E.,Store F.,mo-l,ms-l,fa,0,0,1,0,1,0,1,0,0,0,0,0,0,1
A2A3X2W4YS9X8A,English,38,male,control,control_how,31957,0,0,1,0,NA,NA,NA,NA,NA,NA,NA,0,1,0,1,0,1,0,0,0,0,0,0,1
A2A3X2W4YS9X8A,English,38,male,test,test_yarn,33800,0,0,1,0,Stalls D and E.,Stall E.,Stall A.,ms-l,mo-l,mo-h,0,1,1,0,1,0,1,0,1,0,0,0,0,0
A2A3X2W4YS9X8A,English,38,male,control,control_when,39558,0,0,0,1,NA,NA,NA,NA,NA,NA,NA,1,1,0,1,0,1,0,1,0,0,0,0,0
A2A3X2W4YS9X8A,English,38,male,exit_quest,NA,55591,Yes%2C I view the first question as please list all of the possible places.  I view the second one as where do you suggest I go.,No%2C it was pretty straight forward.,no.,NA,NA,NA,NA,NA,NA,NA,NA,NA,NA,NA,NA,NA,NA,NA,NA,NA,NA,NA,NA,NA
A19D2W1PR68NO,English,43,male,consent,NA,35992,NA,NA,NA,NA,NA,NA,NA,NA,NA,NA,NA,NA,NA,NA,NA,NA,NA,NA,NA,NA,NA,NA,NA,NA
A19D2W1PR68NO,English,43,male,train,train_f,37939,0,0,0,1,NA,NA,NA,NA,NA,NA,NA,NA,NA,NA,NA,NA,NA,NA,NA,NA,NA,NA,NA,NA
A19D2W1PR68NO,English,43,male,train,train_m,53435,0,0,1,0,NA,NA,NA,NA,NA,NA,NA,NA,NA,NA,NA,NA,NA,NA,NA,NA,NA,NA,NA,NA
A19D2W1PR68NO,English,43,male,test,test_shoes,61523,1,1,1,0,"Stores A, B, C, D and E.",Store A.,Stores A and B.,exh,mo-h,ms-h,1,1,0,1,0,0,1,1,1,0,1,0,0,0
A19D2W1PR68NO,English,43,male,control,control_when,39766,0,0,0,1,NA,NA,NA,NA,NA,NA,NA,1,0,1,0,0,1,1,1,0,1,0,0,0
A19D2W1PR68NO,English,43,male,test,test_hair,31890,1,1,1,0,Stylists A and B.,Stylist A.,"Stylists A, B, C, D and E.",ms-h,mo-h,exh,1,1,0,1,0,0,1,1,1,0,1,0,0,0
A19D2W1PR68NO,English,43,male,test,test_yarn,26749,1,1,1,0,Stalls D and E.,Stalls A and B.,Stall A.,ms-l,ms-h,mo-h,0,1,0,1,1,0,1,0,1,0,1,1,0,0
A19D2W1PR68NO,English,43,male,control,control_what,22286,1,1,0,0,NA,NA,NA,NA,NA,NA,NA,1,0,1,1,0,1,0,1,0,1,1,0,0
A19D2W1PR68NO,English,43,male,test,test_coffee,24443,1,1,1,0,"Cafes A, B, C, D and E.",Cafe E.,Cafe A.,exh,mo-l,mo-h,1,1,1,0,0,0,1,1,1,1,0,0,0,0
A19D2W1PR68NO,English,43,male,control,control_why,34443,1,0,0,0,NA,NA,NA,NA,NA,NA,NA,1,1,0,0,0,1,1,1,1,0,0,0,0
A19D2W1PR68NO,English,43,male,test,test_books,72467,1,1,1,0,Bookstore A.,Bookstores A and B.,"Bookstores A, B, C, D and E.",mo-h,ms-h,exh,1,1,0,1,0,0,1,1,1,0,1,0,0,0
A19D2W1PR68NO,English,43,male,test,test_dentist,28183,0,0,0,1,Dentist A.,Dentist E.,Dentists D and E.,mo-h,mo-l,ms-l,0,1,1,0,1,0,1,0,0,0,0,0,0,1
A19D2W1PR68NO,English,43,male,control,control_how,48726,0,0,1,0,NA,NA,NA,NA,NA,NA,NA,1,1,0,1,0,1,0,0,0,0,0,0,1
A19D2W1PR68NO,English,43,male,exit_quest,NA,41764,No%2C the questions mean essentially the same thing.,No%2C I speak English.,No,NA,NA,NA,NA,NA,NA,NA,NA,NA,NA,NA,NA,NA,NA,NA,NA,NA,NA,NA,NA,NA
A26FRAYAIDR4NV,english,30,female,consent,NA,30557,NA,NA,NA,NA,NA,NA,NA,NA,NA,NA,NA,NA,NA,NA,NA,NA,NA,NA,NA,NA,NA,NA,NA,NA
A26FRAYAIDR4NV,english,30,female,train,train_f,25204,0,0,1,0,NA,NA,NA,NA,NA,NA,NA,NA,NA,NA,NA,NA,NA,NA,NA,NA,NA,NA,NA,NA
A26FRAYAIDR4NV,english,30,female,train,train_m,28008,0,0,1,0,NA,NA,NA,NA,NA,NA,NA,NA,NA,NA,NA,NA,NA,NA,NA,NA,NA,NA,NA,NA
A26FRAYAIDR4NV,english,30,female,test,test_hair,55518,0,0,0,1,"Stylists A, B, C, D and E.",Stylist F.,Stylist A.,exh,fa,mo-h,1,1,0,0,0,0,1,0,0,0,0,0,0,1
A26FRAYAIDR4NV,english,30,female,test,test_books,74773,1,0,0,0,Bookstore A.,Bookstore E.,Bookstores A and B.,mo-h,mo-l,ms-h,0,1,1,1,0,0,1,0,1,0,0,0,0,0
A26FRAYAIDR4NV,english,30,female,control,control_when,46857,0,1,0,0,NA,NA,NA,NA,NA,NA,NA,1,1,1,0,0,1,0,1,0,0,0,0,0
A26FRAYAIDR4NV,english,30,female,test,test_yarn,28392,0,1,0,0,Stalls A and B.,Stall A.,Stall F.,ms-h,mo-h,fa,0,1,0,1,0,0,1,0,1,0,0,0,0,0
A26FRAYAIDR4NV,english,30,female,test,test_shoes,25722,1,0,0,0,Stores D and E.,Store E.,Store F.,ms-l,mo-l,fa,0,0,1,0,1,0,1,0,0,0,0,1,0,0
A26FRAYAIDR4NV,english,30,female,control,control_why,29818,0,1,0,0,NA,NA,NA,NA,NA,NA,NA,0,1,0,1,0,1,0,0,0,0,1,0,0
A26FRAYAIDR4NV,english,30,female,test,test_coffee,6507,0,1,0,0,Cafes A and B.,Cafe E.,Cafe A.,ms-h,mo-l,mo-h,0,1,1,1,0,0,1,0,0,1,0,0,0,0
A26FRAYAIDR4NV,english,30,female,control,control_what,35048,1,0,0,0,NA,NA,NA,NA,NA,NA,NA,1,1,1,0,0,1,0,0,1,0,0,0,0
A26FRAYAIDR4NV,english,30,female,test,test_dentist,43147,0,1,0,0,Dentist A.,Dentist E.,Dentists A and B.,mo-h,mo-l,ms-h,0,1,1,1,0,0,1,0,0,1,0,0,0,0
A26FRAYAIDR4NV,english,30,female,control,control_how,5621,0,1,0,0,NA,NA,NA,NA,NA,NA,NA,1,1,1,0,0,1,0,0,1,0,0,0,0
A26FRAYAIDR4NV,english,30,female,exit_quest,NA,50556,,yes,nice,NA,NA,NA,NA,NA,NA,NA,NA,NA,NA,NA,NA,NA,NA,NA,NA,NA,NA,NA,NA,NA
A3JODCUHJMCSA2,English,32,female,consent,NA,49069,NA,NA,NA,NA,NA,NA,NA,NA,NA,NA,NA,NA,NA,NA,NA,NA,NA,NA,NA,NA,NA,NA,NA,NA
A3JODCUHJMCSA2,English,32,female,train,train_f,31463,0,0,0,1,NA,NA,NA,NA,NA,NA,NA,NA,NA,NA,NA,NA,NA,NA,NA,NA,NA,NA,NA,NA
A3JODCUHJMCSA2,English,32,female,train,train_m,41507,0,1,1,0,NA,NA,NA,NA,NA,NA,NA,NA,NA,NA,NA,NA,NA,NA,NA,NA,NA,NA,NA,NA
A3JODCUHJMCSA2,English,32,female,test,test_yarn,32715,1,0,0,0,Stalls A and B.,Stall F.,"Stalls A, B, C, D and E.",ms-h,fa,exh,1,0,0,1,0,0,1,0,0,0,1,0,0,0
A3JODCUHJMCSA2,English,32,female,control,control_what,14612,1,0,0,0,NA,NA,NA,NA,NA,NA,NA,0,0,1,0,0,1,0,0,0,1,0,0,0
A3JODCUHJMCSA2,English,32,female,test,test_shoes,23381,0,0,0,1,Stores D and E.,Store F.,Store E.,ms-l,fa,mo-l,0,0,1,0,1,0,1,0,0,0,0,0,0,1
A3JODCUHJMCSA2,English,32,female,test,test_books,18212,0,1,0,0,Bookstore E.,Bookstores A and B.,Bookstore F.,mo-l,ms-h,fa,0,0,1,1,0,0,1,0,0,0,1,0,0,0
A3JODCUHJMCSA2,English,32,female,control,control_when,24937,0,1,0,0,NA,NA,NA,NA,NA,NA,NA,0,1,1,0,0,1,0,0,0,1,0,0,0
A3JODCUHJMCSA2,English,32,female,test,test_hair,38960,0,0,0,1,Stylist F.,Stylists D and E.,Stylist E.,fa,ms-l,mo-l,0,0,1,0,1,0,1,0,0,0,0,0,0,1
A3JODCUHJMCSA2,English,32,female,control,control_how,38871,0,1,1,0,NA,NA,NA,NA,NA,NA,NA,0,1,0,1,0,1,0,0,0,0,0,0,1
A3JODCUHJMCSA2,English,32,female,test,test_coffee,13705,1,0,0,0,Cafes A and B.,Cafe E.,Cafe F.,ms-h,mo-l,fa,0,0,1,1,0,0,1,0,0,0,1,0,0,0
A3JODCUHJMCSA2,English,32,female,test,test_dentist,21386,0,0,1,0,Dentist F.,Dentist E.,Dentist A.,fa,mo-l,mo-h,0,1,1,0,0,0,1,0,1,0,0,0,0,0
A3JODCUHJMCSA2,English,32,female,control,control_why,23754,1,1,0,0,NA,NA,NA,NA,NA,NA,NA,1,1,0,0,0,1,0,1,0,0,0,0,0
A3JODCUHJMCSA2,English,32,female,exit_quest,NA,31803,No%2C it's basically the same question just worded differently,Somewhat,N/A,NA,NA,NA,NA,NA,NA,NA,NA,NA,NA,NA,NA,NA,NA,NA,NA,NA,NA,NA,NA,NA
A03172343NB8PHOPICC1,English,22,male,consent,NA,28659,NA,NA,NA,NA,NA,NA,NA,NA,NA,NA,NA,NA,NA,NA,NA,NA,NA,NA,NA,NA,NA,NA,NA,NA
A03172343NB8PHOPICC1,English,22,male,train,train_f,11261,0,0,0,1,NA,NA,NA,NA,NA,NA,NA,NA,NA,NA,NA,NA,NA,NA,NA,NA,NA,NA,NA,NA
A03172343NB8PHOPICC1,English,22,male,train,train_m,19182,0,0,1,0,NA,NA,NA,NA,NA,NA,NA,NA,NA,NA,NA,NA,NA,NA,NA,NA,NA,NA,NA,NA
A03172343NB8PHOPICC1,English,22,male,test,test_hair,17095,0,0,1,0,Stylists D and E.,Stylist F.,Stylist A.,ms-l,fa,mo-h,0,1,0,0,1,0,1,0,1,0,0,0,0,0
A03172343NB8PHOPICC1,English,22,male,control,control_how,7755,0,0,1,0,NA,NA,NA,NA,NA,NA,NA,1,0,0,1,0,1,0,1,0,0,0,0,0
A03172343NB8PHOPICC1,English,22,male,test,test_books,8261,1,1,1,0,Bookstore E.,Bookstores D and E.,Bookstores A and B.,mo-l,ms-l,ms-h,0,0,1,1,1,0,1,0,0,1,1,1,0,0
A03172343NB8PHOPICC1,English,22,male,test,test_shoes,2349,0,1,0,0,Store E.,Store A.,"Stores A, B, C, D and E.",mo-l,mo-h,exh,1,1,1,0,0,0,1,0,1,0,0,0,0,0
A03172343NB8PHOPICC1,English,22,male,control,control_what,5874,1,1,1,0,NA,NA,NA,NA,NA,NA,NA,1,1,0,0,0,1,0,1,0,0,0,0,0
A03172343NB8PHOPICC1,English,22,male,test,test_yarn,6006,1,1,1,0,"Stalls A, B, C, D and E.",Stalls D and E.,Stall A.,exh,ms-l,mo-h,1,1,0,0,1,0,1,1,1,0,0,1,0,0
A03172343NB8PHOPICC1,English,22,male,control,control_why,62657,1,1,0,0,NA,NA,NA,NA,NA,NA,NA,1,0,0,1,0,1,1,1,0,0,1,0,0
A03172343NB8PHOPICC1,English,22,male,test,test_coffee,39362,1,1,1,0,Cafes A and B.,Cafe E.,Cafe A.,ms-h,mo-l,mo-h,0,1,1,1,0,0,1,0,1,1,1,0,0,0
A03172343NB8PHOPICC1,English,22,male,test,test_dentist,4774,1,1,1,0,"Dentists A, B, C, D and E.",Dentist E.,Dentists D and E.,exh,mo-l,ms-l,1,0,1,0,1,0,1,1,0,1,0,1,0,0
A03172343NB8PHOPICC1,English,22,male,control,control_when,121720,0,0,0,1,NA,NA,NA,NA,NA,NA,NA,0,1,0,1,0,1,1,0,1,0,1,0,0
A03172343NB8PHOPICC1,English,22,male,exit_quest,NA,404571,No%2C I think they are basically the same question that would warrant the same answer.,A bit difficult because it was a little bit repetitive.,Overall%2C I enjoyed it.,NA,NA,NA,NA,NA,NA,NA,NA,NA,NA,NA,NA,NA,NA,NA,NA,NA,NA,NA,NA,NA
ADOVF9SBJJK33,English,32,male,consent,NA,26595,NA,NA,NA,NA,NA,NA,NA,NA,NA,NA,NA,NA,NA,NA,NA,NA,NA,NA,NA,NA,NA,NA,NA,NA
ADOVF9SBJJK33,English,32,male,train,train_f,31410,0,0,0,1,NA,NA,NA,NA,NA,NA,NA,NA,NA,NA,NA,NA,NA,NA,NA,NA,NA,NA,NA,NA
ADOVF9SBJJK33,English,32,male,train,train_m,46599,0,1,1,0,NA,NA,NA,NA,NA,NA,NA,NA,NA,NA,NA,NA,NA,NA,NA,NA,NA,NA,NA,NA
ADOVF9SBJJK33,English,32,male,test,test_dentist,49793,0,0,0,1,Dentist F.,Dentists A and B.,Dentists D and E.,fa,ms-h,ms-l,0,0,0,1,1,0,1,0,0,0,0,0,0,1
ADOVF9SBJJK33,English,32,male,test,test_shoes,74737,0,1,1,0,Store F.,"Stores A, B, C, D and E.",Stores A and B.,fa,exh,ms-h,1,0,0,1,0,0,1,1,0,0,1,0,0,0
ADOVF9SBJJK33,English,32,male,control,control_why,24781,1,1,0,0,NA,NA,NA,NA,NA,NA,NA,0,0,1,0,0,1,1,0,0,1,0,0,0
ADOVF9SBJJK33,English,32,male,test,test_yarn,33144,1,0,0,0,Stall A.,Stalls D and E.,Stall F.,mo-h,ms-l,fa,0,1,0,0,1,0,1,0,1,0,0,0,0,0
ADOVF9SBJJK33,English,32,male,test,test_hair,21077,0,0,1,0,Stylist F.,Stylists D and E.,Stylist A.,fa,ms-l,mo-h,0,1,0,0,1,0,1,0,1,0,0,0,0,0
ADOVF9SBJJK33,English,32,male,control,control_when,31388,0,0,0,1,NA,NA,NA,NA,NA,NA,NA,1,0,0,1,0,1,0,1,0,0,0,0,0
ADOVF9SBJJK33,English,32,male,test,test_coffee,20181,1,1,0,0,Cafe A.,Cafes A and B.,Cafes D and E.,mo-h,ms-h,ms-l,0,1,0,1,1,0,1,0,1,0,1,0,0,0
ADOVF9SBJJK33,English,32,male,control,control_how,41000,0,1,1,0,NA,NA,NA,NA,NA,NA,NA,1,0,1,1,0,1,0,1,0,1,0,0,0
ADOVF9SBJJK33,English,32,male,test,test_books,23652,1,0,1,0,"Bookstores A, B, C, D and E.",Bookstore E.,Bookstore A.,exh,mo-l,mo-h,1,1,1,0,0,0,1,1,1,0,0,0,0,0
ADOVF9SBJJK33,English,32,male,control,control_what,22279,1,0,0,0,NA,NA,NA,NA,NA,NA,NA,1,1,0,0,0,1,1,1,0,0,0,0,0
ADOVF9SBJJK33,English,32,male,exit_quest,NA,106748,No because I consider anyplace that serves brunch to be a restaurant as well so it's the same question to me.,Sort of. I dont think I did well. Some of the A/B/C/D type questions confused me.,No,NA,NA,NA,NA,NA,NA,NA,NA,NA,NA,NA,NA,NA,NA,NA,NA,NA,NA,NA,NA,NA
A2EW08X2I87RXL,English,34,male,consent,NA,21175,NA,NA,NA,NA,NA,NA,NA,NA,NA,NA,NA,NA,NA,NA,NA,NA,NA,NA,NA,NA,NA,NA,NA,NA
A2EW08X2I87RXL,English,34,male,train,train_m,52992,0,0,1,0,NA,NA,NA,NA,NA,NA,NA,NA,NA,NA,NA,NA,NA,NA,NA,NA,NA,NA,NA,NA
A2EW08X2I87RXL,English,34,male,train,train_f,66176,0,0,0,1,NA,NA,NA,NA,NA,NA,NA,NA,NA,NA,NA,NA,NA,NA,NA,NA,NA,NA,NA,NA
A2EW08X2I87RXL,English,34,male,test,test_books,82567,1,1,1,0,Bookstore E.,Bookstores D and E.,Bookstores A and B.,mo-l,ms-l,ms-h,0,0,1,1,1,0,1,0,0,1,1,1,0,0
A2EW08X2I87RXL,English,34,male,test,test_yarn,96553,0,0,0,1,Stall A.,Stall E.,Stalls A and B.,mo-h,mo-l,ms-h,0,1,1,1,0,0,1,0,0,0,0,0,0,1
A2EW08X2I87RXL,English,34,male,control,control_when,54799,0,0,0,1,NA,NA,NA,NA,NA,NA,NA,1,1,1,0,0,1,0,0,0,0,0,0,1
A2EW08X2I87RXL,English,34,male,test,test_shoes,61842,1,1,1,0,Store E.,Stores A and B.,"Stores A, B, C, D and E.",mo-l,ms-h,exh,1,0,1,1,0,0,1,1,0,1,1,0,0,0
A2EW08X2I87RXL,English,34,male,control,control_how,86253,1,1,1,0,NA,NA,NA,NA,NA,NA,NA,0,1,1,0,0,1,1,0,1,1,0,0,0
A2EW08X2I87RXL,English,34,male,test,test_dentist,16290,0,0,0,1,Dentist E.,Dentist A.,Dentists A and B.,mo-l,mo-h,ms-h,0,1,1,1,0,0,1,0,0,0,0,0,0,1
A2EW08X2I87RXL,English,34,male,test,test_coffee,13459,1,1,1,0,Cafe E.,Cafes D and E.,Cafe A.,mo-l,ms-l,mo-h,0,1,1,0,1,0,1,0,1,1,0,1,0,0
A2EW08X2I87RXL,English,34,male,control,control_what,19302,0,1,0,0,NA,NA,NA,NA,NA,NA,NA,1,1,0,1,0,1,0,1,1,0,1,0,0
A2EW08X2I87RXL,English,34,male,test,test_hair,11092,0,0,0,1,Stylists D and E.,Stylist E.,Stylists A and B.,ms-l,mo-l,ms-h,0,0,1,1,1,0,1,0,0,0,0,0,0,1
A2EW08X2I87RXL,English,34,male,control,control_why,4209,0,0,0,1,NA,NA,NA,NA,NA,NA,NA,0,1,1,1,0,1,0,0,0,0,0,0,1
A2EW08X2I87RXL,English,34,male,exit_quest,NA,87078,No%2C the answer will be same.,Not difficult%2C because It was interesting ,None,NA,NA,NA,NA,NA,NA,NA,NA,NA,NA,NA,NA,NA,NA,NA,NA,NA,NA,NA,NA,NA
ALF9AAZGQP4K5,english,30,male,consent,NA,52388,NA,NA,NA,NA,NA,NA,NA,NA,NA,NA,NA,NA,NA,NA,NA,NA,NA,NA,NA,NA,NA,NA,NA,NA
ALF9AAZGQP4K5,english,30,male,train,train_f,35779,0,0,0,1,NA,NA,NA,NA,NA,NA,NA,NA,NA,NA,NA,NA,NA,NA,NA,NA,NA,NA,NA,NA
ALF9AAZGQP4K5,english,30,male,train,train_m,37927,0,0,1,0,NA,NA,NA,NA,NA,NA,NA,NA,NA,NA,NA,NA,NA,NA,NA,NA,NA,NA,NA,NA
ALF9AAZGQP4K5,english,30,male,test,test_books,76729,0,0,0,1,Bookstore E.,Bookstores A and B.,Bookstore A.,mo-l,ms-h,mo-h,0,1,1,1,0,0,1,0,0,0,0,0,0,1
ALF9AAZGQP4K5,english,30,male,control,control_when,51004,1,1,0,0,NA,NA,NA,NA,NA,NA,NA,1,1,1,0,0,1,0,0,0,0,0,0,1
ALF9AAZGQP4K5,english,30,male,test,test_shoes,36024,0,0,1,0,Store E.,Store F.,Store A.,mo-l,fa,mo-h,0,1,1,0,0,0,1,0,1,0,0,0,0,0
ALF9AAZGQP4K5,english,30,male,test,test_dentist,31351,0,1,1,0,Dentist E.,Dentists A and B.,Dentist A.,mo-l,ms-h,mo-h,0,1,1,1,0,0,1,0,1,0,1,0,0,0
ALF9AAZGQP4K5,english,30,male,control,control_how,48689,0,0,1,0,NA,NA,NA,NA,NA,NA,NA,1,1,1,0,0,1,0,1,0,1,0,0,0
ALF9AAZGQP4K5,english,30,male,test,test_yarn,19486,0,0,0,1,Stall F.,Stalls D and E.,Stall A.,fa,ms-l,mo-h,0,1,0,0,1,0,1,0,0,0,0,0,0,1
ALF9AAZGQP4K5,english,30,male,control,control_what,31836,1,0,0,0,NA,NA,NA,NA,NA,NA,NA,1,0,0,1,0,1,0,0,0,0,0,0,1
ALF9AAZGQP4K5,english,30,male,test,test_coffee,56689,0,0,1,0,"Cafes A, B, C, D and E.",Cafe E.,Cafes A and B.,exh,mo-l,ms-h,1,0,1,1,0,0,1,0,0,0,1,0,0,0
ALF9AAZGQP4K5,english,30,male,test,test_hair,16992,0,0,1,0,Stylists D and E.,Stylist F.,"Stylists A, B, C, D and E.",ms-l,fa,exh,1,0,0,0,1,0,1,1,0,0,0,0,0,0
ALF9AAZGQP4K5,english,30,male,control,control_why,26983,1,1,0,0,NA,NA,NA,NA,NA,NA,NA,0,0,0,1,0,1,1,0,0,0,0,0,0
ALF9AAZGQP4K5,english,30,male,exit_quest,NA,63497,i would asnwer the same unless there were places other than restaurants that serve brunch,just aggravating and monotonous,no,NA,NA,NA,NA,NA,NA,NA,NA,NA,NA,NA,NA,NA,NA,NA,NA,NA,NA,NA,NA,NA
A28LPPFS7FW2SD,English,50,male,consent,NA,39041,NA,NA,NA,NA,NA,NA,NA,NA,NA,NA,NA,NA,NA,NA,NA,NA,NA,NA,NA,NA,NA,NA,NA,NA
A28LPPFS7FW2SD,English,50,male,train,train_m,7386,1,0,0,0,NA,NA,NA,NA,NA,NA,NA,NA,NA,NA,NA,NA,NA,NA,NA,NA,NA,NA,NA,NA
A28LPPFS7FW2SD,English,50,male,train,train_f,8287,1,0,0,0,NA,NA,NA,NA,NA,NA,NA,NA,NA,NA,NA,NA,NA,NA,NA,NA,NA,NA,NA,NA
A28LPPFS7FW2SD,English,50,male,test,test_books,12015,1,1,1,0,Bookstore A.,Bookstore F.,Bookstore E.,mo-h,fa,mo-l,0,1,1,0,0,0,1,0,1,1,0,0,0,0
A28LPPFS7FW2SD,English,50,male,control,control_why,8798,1,1,1,0,NA,NA,NA,NA,NA,NA,NA,1,1,0,0,0,1,0,1,1,0,0,0,0
A28LPPFS7FW2SD,English,50,male,test,test_coffee,13969,1,1,1,0,Cafe E.,Cafes D and E.,Cafe A.,mo-l,ms-l,mo-h,0,1,1,0,1,0,1,0,1,1,0,1,0,0
A28LPPFS7FW2SD,English,50,male,test,test_hair,11167,1,1,1,0,"Stylists A, B, C, D and E.",Stylist A.,Stylists A and B.,exh,mo-h,ms-h,1,1,0,1,0,0,1,1,1,0,1,0,0,0
A28LPPFS7FW2SD,English,50,male,control,control_what,10458,1,1,1,0,NA,NA,NA,NA,NA,NA,NA,1,0,1,0,0,1,1,1,0,1,0,0,0
A28LPPFS7FW2SD,English,50,male,test,test_dentist,11049,0,0,1,0,Dentists D and E.,Dentists A and B.,Dentist F.,ms-l,ms-h,fa,0,0,0,1,1,0,1,0,0,0,0,0,0,0
A28LPPFS7FW2SD,English,50,male,control,control_how,7236,0,1,0,0,NA,NA,NA,NA,NA,NA,NA,0,0,1,1,0,1,0,0,0,0,0,0,0
A28LPPFS7FW2SD,English,50,male,test,test_shoes,11499,0,1,1,0,Stores A and B.,Stores D and E.,Store E.,ms-h,ms-l,mo-l,0,0,1,1,1,0,1,0,0,1,0,1,0,0
A28LPPFS7FW2SD,English,50,male,test,test_yarn,8246,0,1,0,0,Stalls D and E.,"Stalls A, B, C, D and E.",Stall E.,ms-l,exh,mo-l,1,0,1,0,1,0,1,1,0,0,0,0,0,0
A28LPPFS7FW2SD,English,50,male,control,control_when,5747,0,0,1,0,NA,NA,NA,NA,NA,NA,NA,0,1,0,1,0,1,1,0,0,0,0,0,0
A28LPPFS7FW2SD,English,50,male,exit_quest,NA,105161,the quality is important,no because its to concerntration,good,NA,NA,NA,NA,NA,NA,NA,NA,NA,NA,NA,NA,NA,NA,NA,NA,NA,NA,NA,NA,NA
A38YLXHJTSE5VD,English ,30,other,consent,NA,30903,NA,NA,NA,NA,NA,NA,NA,NA,NA,NA,NA,NA,NA,NA,NA,NA,NA,NA,NA,NA,NA,NA,NA,NA
A38YLXHJTSE5VD,English ,30,other,train,train_m,69876,0,1,1,0,NA,NA,NA,NA,NA,NA,NA,NA,NA,NA,NA,NA,NA,NA,NA,NA,NA,NA,NA,NA
A38YLXHJTSE5VD,English ,30,other,train,train_f,66814,0,0,0,1,NA,NA,NA,NA,NA,NA,NA,NA,NA,NA,NA,NA,NA,NA,NA,NA,NA,NA,NA,NA
A38YLXHJTSE5VD,English ,30,other,test,test_coffee,30087,0,0,0,1,Cafe A.,Cafes D and E.,Cafes A and B.,mo-h,ms-l,ms-h,0,1,0,1,1,0,1,0,0,0,0,0,0,1
A38YLXHJTSE5VD,English ,30,other,test,test_hair,35700,0,0,0,1,Stylist F.,Stylists A and B.,"Stylists A, B, C, D and E.",fa,ms-h,exh,1,0,0,1,0,0,1,0,0,0,0,0,0,1
A38YLXHJTSE5VD,English ,30,other,control,control_what,28290,1,0,0,0,NA,NA,NA,NA,NA,NA,NA,0,0,1,0,0,1,0,0,0,0,0,0,1
A38YLXHJTSE5VD,English ,30,other,test,test_dentist,42658,0,0,0,1,Dentist F.,Dentists A and B.,Dentist A.,fa,ms-h,mo-h,0,1,0,1,0,0,1,0,0,0,0,0,0,1
A38YLXHJTSE5VD,English ,30,other,control,control_when,45294,0,0,0,1,NA,NA,NA,NA,NA,NA,NA,1,0,1,0,0,1,0,0,0,0,0,0,1
A38YLXHJTSE5VD,English ,30,other,test,test_shoes,122021,1,1,1,0,Stores D and E.,Store A.,Stores A and B.,ms-l,mo-h,ms-h,0,1,0,1,1,0,1,0,1,0,1,1,0,0
A38YLXHJTSE5VD,English ,30,other,test,test_books,33138,1,1,1,0,"Bookstores A, B, C, D and E.",Bookstores D and E.,Bookstore F.,exh,ms-l,fa,1,0,0,0,1,0,1,1,0,0,0,1,0,0
A38YLXHJTSE5VD,English ,30,other,control,control_how,43560,1,1,1,0,NA,NA,NA,NA,NA,NA,NA,0,0,0,1,0,1,1,0,0,0,1,0,0
A38YLXHJTSE5VD,English ,30,other,test,test_yarn,26338,0,0,0,1,Stalls D and E.,"Stalls A, B, C, D and E.",Stalls A and B.,ms-l,exh,ms-h,1,0,0,1,1,0,1,0,0,0,0,0,0,1
A38YLXHJTSE5VD,English ,30,other,control,control_why,26824,0,0,1,0,NA,NA,NA,NA,NA,NA,NA,0,0,1,1,0,1,0,0,0,0,0,0,1
A38YLXHJTSE5VD,English ,30,other,exit_quest,NA,97523,Yes for the first question I would answer all the places you can go for brunch and for the second I would say the places I like.,Yes some of them it was hard to determine who knew what.,No,NA,NA,NA,NA,NA,NA,NA,NA,NA,NA,NA,NA,NA,NA,NA,NA,NA,NA,NA,NA,NA
AWZCVOUD0LPT,hindi,26,female,consent,NA,27483,NA,NA,NA,NA,NA,NA,NA,NA,NA,NA,NA,NA,NA,NA,NA,NA,NA,NA,NA,NA,NA,NA,NA,NA
AWZCVOUD0LPT,hindi,26,female,train,train_m,52501,0,0,1,0,NA,NA,NA,NA,NA,NA,NA,NA,NA,NA,NA,NA,NA,NA,NA,NA,NA,NA,NA,NA
AWZCVOUD0LPT,hindi,26,female,train,train_f,45398,0,1,1,0,NA,NA,NA,NA,NA,NA,NA,NA,NA,NA,NA,NA,NA,NA,NA,NA,NA,NA,NA,NA
AWZCVOUD0LPT,hindi,26,female,test,test_dentist,95146,0,0,0,1,Dentists D and E.,Dentist A.,Dentists A and B.,ms-l,mo-h,ms-h,0,1,0,1,1,0,1,0,0,0,0,0,0,1
AWZCVOUD0LPT,hindi,26,female,test,test_shoes,32282,0,1,0,0,Store A.,Stores D and E.,Store E.,mo-h,ms-l,mo-l,0,1,1,0,1,0,1,0,0,0,0,1,0,0
AWZCVOUD0LPT,hindi,26,female,control,control_why,18530,0,1,0,0,NA,NA,NA,NA,NA,NA,NA,1,1,0,1,0,1,0,0,0,0,1,0,0
AWZCVOUD0LPT,hindi,26,female,test,test_hair,22183,0,1,0,0,Stylist E.,Stylist A.,Stylist F.,mo-l,mo-h,fa,0,1,1,0,0,0,1,0,1,0,0,0,0,0
AWZCVOUD0LPT,hindi,26,female,control,control_what,4518,0,1,0,0,NA,NA,NA,NA,NA,NA,NA,1,1,0,0,0,1,0,1,0,0,0,0,0
AWZCVOUD0LPT,hindi,26,female,test,test_coffee,43527,1,0,0,1,Cafe A.,Cafe F.,Cafes D and E.,mo-h,fa,ms-l,0,1,0,0,1,0,1,0,1,0,0,0,0,1
AWZCVOUD0LPT,hindi,26,female,test,test_books,14249,1,0,0,1,Bookstores D and E.,Bookstore E.,Bookstores A and B.,ms-l,mo-l,ms-h,0,0,1,1,1,0,1,0,0,0,0,1,0,1
AWZCVOUD0LPT,hindi,26,female,control,control_when,3416,0,1,0,0,NA,NA,NA,NA,NA,NA,NA,0,1,1,1,0,1,0,0,0,0,1,0,1
AWZCVOUD0LPT,hindi,26,female,test,test_yarn,4834,0,0,1,0,Stall A.,Stalls D and E.,Stall E.,mo-h,ms-l,mo-l,0,1,1,0,1,0,1,0,0,1,0,0,0,0
AWZCVOUD0LPT,hindi,26,female,control,control_how,4349,0,1,0,0,NA,NA,NA,NA,NA,NA,NA,1,1,0,1,0,1,0,0,1,0,0,0,0
AWZCVOUD0LPT,hindi,26,female,exit_quest,NA,4868,,,,NA,NA,NA,NA,NA,NA,NA,NA,NA,NA,NA,NA,NA,NA,NA,NA,NA,NA,NA,NA,NA
AZCGSVDT79E6X,English,24,male,consent,NA,10745,NA,NA,NA,NA,NA,NA,NA,NA,NA,NA,NA,NA,NA,NA,NA,NA,NA,NA,NA,NA,NA,NA,NA,NA
AZCGSVDT79E6X,English,24,male,train,train_f,21711,0,0,0,1,NA,NA,NA,NA,NA,NA,NA,NA,NA,NA,NA,NA,NA,NA,NA,NA,NA,NA,NA,NA
AZCGSVDT79E6X,English,24,male,train,train_m,15797,0,0,1,0,NA,NA,NA,NA,NA,NA,NA,NA,NA,NA,NA,NA,NA,NA,NA,NA,NA,NA,NA,NA
AZCGSVDT79E6X,English,24,male,test,test_hair,57391,1,0,0,0,Stylists A and B.,Stylist E.,Stylist A.,ms-h,mo-l,mo-h,0,1,1,1,0,0,1,0,0,0,1,0,0,0
AZCGSVDT79E6X,English,24,male,test,test_shoes,26572,0,1,0,0,Stores D and E.,"Stores A, B, C, D and E.",Store E.,ms-l,exh,mo-l,1,0,1,0,1,0,1,1,0,0,0,0,0,0
AZCGSVDT79E6X,English,24,male,control,control_how,26443,0,0,1,0,NA,NA,NA,NA,NA,NA,NA,0,1,0,1,0,1,1,0,0,0,0,0,0
AZCGSVDT79E6X,English,24,male,test,test_books,32748,1,1,1,0,"Bookstores A, B, C, D and E.",Bookstores A and B.,Bookstore E.,exh,ms-h,mo-l,1,0,1,1,0,0,1,1,0,1,1,0,0,0
AZCGSVDT79E6X,English,24,male,control,control_when,29890,1,1,1,0,NA,NA,NA,NA,NA,NA,NA,0,1,1,0,0,1,1,0,1,1,0,0,0
AZCGSVDT79E6X,English,24,male,test,test_coffee,43901,0,1,0,0,Cafe E.,Cafes A and B.,Cafes D and E.,mo-l,ms-h,ms-l,0,0,1,1,1,0,1,0,0,0,1,0,0,0
AZCGSVDT79E6X,English,24,male,test,test_yarn,19279,1,1,0,0,Stall A.,Stalls A and B.,Stalls D and E.,mo-h,ms-h,ms-l,0,1,0,1,1,0,1,0,1,0,1,0,0,0
AZCGSVDT79E6X,English,24,male,control,control_why,37451,1,1,0,0,NA,NA,NA,NA,NA,NA,NA,1,0,1,1,0,1,0,1,0,1,0,0,0
AZCGSVDT79E6X,English,24,male,test,test_dentist,28542,0,0,0,1,Dentist E.,Dentist F.,Dentists D and E.,mo-l,fa,ms-l,0,0,1,0,1,0,1,0,0,0,0,0,0,1
AZCGSVDT79E6X,English,24,male,control,control_what,36323,1,0,0,0,NA,NA,NA,NA,NA,NA,NA,0,1,0,1,0,1,0,0,0,0,0,0,1
AZCGSVDT79E6X,English,24,male,exit_quest,NA,74983,No%2C  they are asking a the same question%2C about what places serve brunch.,No%2C it was easy to understand with how the information was presented to me.,It was fun and interesting to complete.,NA,NA,NA,NA,NA,NA,NA,NA,NA,NA,NA,NA,NA,NA,NA,NA,NA,NA,NA,NA,NA
A3UN1F1EOHKKE6,English,37,male,consent,NA,51842,NA,NA,NA,NA,NA,NA,NA,NA,NA,NA,NA,NA,NA,NA,NA,NA,NA,NA,NA,NA,NA,NA,NA,NA
A3UN1F1EOHKKE6,English,37,male,train,train_m,36017,0,0,1,0,NA,NA,NA,NA,NA,NA,NA,NA,NA,NA,NA,NA,NA,NA,NA,NA,NA,NA,NA,NA
A3UN1F1EOHKKE6,English,37,male,train,train_f,39746,0,0,0,1,NA,NA,NA,NA,NA,NA,NA,NA,NA,NA,NA,NA,NA,NA,NA,NA,NA,NA,NA,NA
A3UN1F1EOHKKE6,English,37,male,test,test_coffee,40651,0,0,1,0,Cafes D and E.,Cafe E.,Cafes A and B.,ms-l,mo-l,ms-h,0,0,1,1,1,0,1,0,0,0,1,0,0,0
A3UN1F1EOHKKE6,English,37,male,test,test_shoes,28801,0,1,1,0,Stores D and E.,Store A.,Stores A and B.,ms-l,mo-h,ms-h,0,1,0,1,1,0,1,0,1,0,1,0,0,0
A3UN1F1EOHKKE6,English,37,male,control,control_how,65519,0,1,1,0,NA,NA,NA,NA,NA,NA,NA,1,0,1,1,0,1,0,1,0,1,0,0,0
A3UN1F1EOHKKE6,English,37,male,test,test_dentist,39418,1,1,1,0,"Dentists A, B, C, D and E.",Dentist F.,Dentist E.,exh,fa,mo-l,1,0,1,0,0,0,1,1,0,1,0,0,0,0
A3UN1F1EOHKKE6,English,37,male,control,control_when,58258,1,1,0,0,NA,NA,NA,NA,NA,NA,NA,0,1,0,0,0,1,1,0,1,0,0,0,0
A3UN1F1EOHKKE6,English,37,male,test,test_yarn,35364,1,0,0,0,Stalls A and B.,Stall E.,Stalls D and E.,ms-h,mo-l,ms-l,0,0,1,1,1,0,1,0,0,0,1,0,0,0
A3UN1F1EOHKKE6,English,37,male,test,test_books,21800,0,0,1,0,Bookstores D and E.,Bookstore E.,Bookstore A.,ms-l,mo-l,mo-h,0,1,1,0,1,0,1,0,1,0,0,0,0,0
A3UN1F1EOHKKE6,English,37,male,control,control_why,19341,1,1,0,0,NA,NA,NA,NA,NA,NA,NA,1,1,0,1,0,1,0,1,0,0,0,0,0
A3UN1F1EOHKKE6,English,37,male,test,test_hair,22496,0,0,1,0,Stylist F.,Stylist E.,"Stylists A, B, C, D and E.",fa,mo-l,exh,1,0,1,0,0,0,1,1,0,0,0,0,0,0
A3UN1F1EOHKKE6,English,37,male,control,control_what,15179,1,0,0,0,NA,NA,NA,NA,NA,NA,NA,0,1,0,0,0,1,1,0,0,0,0,0,0
A3UN1F1EOHKKE6,English,37,male,exit_quest,NA,161720,I would answer the same way%2C because I think that both questions are asking the same thing. Brunch is served in restaurants%2C and that fact can be assumed when the question is phrased the second way.,Sometimes it was difficult because there seemed to be a level of philosophy in some of the questions and answers ,Nothing else.,NA,NA,NA,NA,NA,NA,NA,NA,NA,NA,NA,NA,NA,NA,NA,NA,NA,NA,NA,NA,NA
AXP8EG22MPZY8,English,38,male,consent,NA,27416,NA,NA,NA,NA,NA,NA,NA,NA,NA,NA,NA,NA,NA,NA,NA,NA,NA,NA,NA,NA,NA,NA,NA,NA
AXP8EG22MPZY8,English,38,male,train,train_f,56233,0,0,0,1,NA,NA,NA,NA,NA,NA,NA,NA,NA,NA,NA,NA,NA,NA,NA,NA,NA,NA,NA,NA
AXP8EG22MPZY8,English,38,male,train,train_m,57853,0,0,1,0,NA,NA,NA,NA,NA,NA,NA,NA,NA,NA,NA,NA,NA,NA,NA,NA,NA,NA,NA,NA
AXP8EG22MPZY8,English,38,male,test,test_shoes,82888,1,1,1,0,Stores A and B.,Store A.,Stores D and E.,ms-h,mo-h,ms-l,0,1,0,1,1,0,1,0,1,0,1,1,0,0
AXP8EG22MPZY8,English,38,male,test,test_coffee,37884,1,0,1,0,Cafes D and E.,"Cafes A, B, C, D and E.",Cafe E.,ms-l,exh,mo-l,1,0,1,0,1,0,1,0,0,1,0,1,0,0
AXP8EG22MPZY8,English,38,male,control,control_how,108712,1,1,1,0,NA,NA,NA,NA,NA,NA,NA,0,1,0,1,0,1,0,0,1,0,1,0,0
AXP8EG22MPZY8,English,38,male,test,test_books,39584,1,1,1,0,Bookstores A and B.,Bookstores D and E.,Bookstore A.,ms-h,ms-l,mo-h,0,1,0,1,1,0,1,0,1,0,1,1,0,0
AXP8EG22MPZY8,English,38,male,test,test_yarn,24629,1,1,1,0,Stalls D and E.,Stall E.,Stall F.,ms-l,mo-l,fa,0,0,1,0,1,0,1,0,0,1,0,1,0,0
AXP8EG22MPZY8,English,38,male,control,control_why,28934,1,1,0,0,NA,NA,NA,NA,NA,NA,NA,0,1,0,1,0,1,0,0,1,0,1,0,0
AXP8EG22MPZY8,English,38,male,test,test_dentist,48368,0,0,0,1,Dentist A.,Dentists D and E.,Dentist F.,mo-h,ms-l,fa,0,1,0,0,1,0,1,0,0,0,0,0,0,1
AXP8EG22MPZY8,English,38,male,control,control_when,66215,1,0,1,0,NA,NA,NA,NA,NA,NA,NA,1,0,0,1,0,1,0,0,0,0,0,0,1
AXP8EG22MPZY8,English,38,male,test,test_hair,45951,1,1,1,0,Stylists D and E.,Stylist A.,Stylists A and B.,ms-l,mo-h,ms-h,0,1,0,1,1,0,1,0,1,0,1,1,0,0
AXP8EG22MPZY8,English,38,male,control,control_what,27949,0,0,0,1,NA,NA,NA,NA,NA,NA,NA,1,0,1,1,0,1,0,1,0,1,1,0,0
AXP8EG22MPZY8,English,38,male,exit_quest,NA,56415,No I would answer the same,No%2C because it is easy,No,NA,NA,NA,NA,NA,NA,NA,NA,NA,NA,NA,NA,NA,NA,NA,NA,NA,NA,NA,NA,NA
A1XATJA7ENOGWB,English,46,male,consent,NA,29437,NA,NA,NA,NA,NA,NA,NA,NA,NA,NA,NA,NA,NA,NA,NA,NA,NA,NA,NA,NA,NA,NA,NA,NA
A1XATJA7ENOGWB,English,46,male,train,train_f,36014,0,0,0,1,NA,NA,NA,NA,NA,NA,NA,NA,NA,NA,NA,NA,NA,NA,NA,NA,NA,NA,NA,NA
A1XATJA7ENOGWB,English,46,male,train,train_m,46658,0,0,1,0,NA,NA,NA,NA,NA,NA,NA,NA,NA,NA,NA,NA,NA,NA,NA,NA,NA,NA,NA,NA
A1XATJA7ENOGWB,English,46,male,test,test_books,177704,1,1,1,0,"Bookstores A, B, C, D and E.",Bookstores A and B.,Bookstore E.,exh,ms-h,mo-l,1,0,1,1,0,0,1,1,0,1,1,0,0,0
A1XATJA7ENOGWB,English,46,male,test,test_dentist,17861,1,1,1,0,Dentists A and B.,"Dentists A, B, C, D and E.",Dentist A.,ms-h,exh,mo-h,1,1,0,1,0,0,1,1,1,0,1,0,0,0
A1XATJA7ENOGWB,English,46,male,control,control_when,85503,0,0,0,1,NA,NA,NA,NA,NA,NA,NA,1,0,1,0,0,1,1,1,0,1,0,0,0
A1XATJA7ENOGWB,English,46,male,test,test_hair,34905,1,1,1,0,Stylist A.,Stylist F.,Stylists D and E.,mo-h,fa,ms-l,0,1,0,0,1,0,1,0,1,0,0,1,0,0
A1XATJA7ENOGWB,English,46,male,control,control_how,49566,0,1,0,0,NA,NA,NA,NA,NA,NA,NA,1,0,0,1,0,1,0,1,0,0,1,0,0
A1XATJA7ENOGWB,English,46,male,test,test_shoes,18699,1,1,1,0,Store E.,Store A.,Stores D and E.,mo-l,mo-h,ms-l,0,1,1,0,1,0,1,0,1,1,0,1,0,0
A1XATJA7ENOGWB,English,46,male,test,test_coffee,14950,1,1,1,0,Cafes A and B.,Cafe E.,Cafe A.,ms-h,mo-l,mo-h,0,1,1,1,0,0,1,0,1,1,1,0,0,0
A1XATJA7ENOGWB,English,46,male,control,control_why,41348,0,0,0,1,NA,NA,NA,NA,NA,NA,NA,1,1,1,0,0,1,0,1,1,1,0,0,0
A1XATJA7ENOGWB,English,46,male,test,test_yarn,22845,1,1,1,0,Stalls D and E.,"Stalls A, B, C, D and E.",Stalls A and B.,ms-l,exh,ms-h,1,0,0,1,1,0,1,1,0,0,1,1,0,0
A1XATJA7ENOGWB,English,46,male,control,control_what,41852,1,0,0,0,NA,NA,NA,NA,NA,NA,NA,0,0,1,1,0,1,1,0,0,1,1,0,0
A1XATJA7ENOGWB,English,46,male,exit_quest,NA,50141,No%2C the traveler is still asking the same thing.,No,No,NA,NA,NA,NA,NA,NA,NA,NA,NA,NA,NA,NA,NA,NA,NA,NA,NA,NA,NA,NA,NA
A2W5Q0IVJUS7Y6,English,67,male,consent,NA,82416,NA,NA,NA,NA,NA,NA,NA,NA,NA,NA,NA,NA,NA,NA,NA,NA,NA,NA,NA,NA,NA,NA,NA,NA
A2W5Q0IVJUS7Y6,English,67,male,train,train_f,54660,0,0,0,1,NA,NA,NA,NA,NA,NA,NA,NA,NA,NA,NA,NA,NA,NA,NA,NA,NA,NA,NA,NA
A2W5Q0IVJUS7Y6,English,67,male,train,train_m,31088,0,0,1,0,NA,NA,NA,NA,NA,NA,NA,NA,NA,NA,NA,NA,NA,NA,NA,NA,NA,NA,NA,NA
A2W5Q0IVJUS7Y6,English,67,male,test,test_dentist,69247,0,1,1,0,Dentists A and B.,Dentist E.,Dentist A.,ms-h,mo-l,mo-h,0,1,1,1,0,0,1,0,1,1,0,0,0,0
A2W5Q0IVJUS7Y6,English,67,male,control,control_how,26375,0,0,1,0,NA,NA,NA,NA,NA,NA,NA,1,1,1,0,0,1,0,1,1,0,0,0,0
A2W5Q0IVJUS7Y6,English,67,male,test,test_hair,27034,0,1,0,0,Stylists D and E.,Stylists A and B.,Stylist E.,ms-l,ms-h,mo-l,0,0,1,1,1,0,1,0,0,0,1,0,0,0
A2W5Q0IVJUS7Y6,English,67,male,test,test_shoes,35766,1,1,1,0,Store F.,Store A.,Stores A and B.,fa,mo-h,ms-h,0,1,0,1,0,0,1,0,1,0,1,0,0,0
A2W5Q0IVJUS7Y6,English,67,male,control,control_what,18848,1,1,0,0,NA,NA,NA,NA,NA,NA,NA,1,0,1,0,0,1,0,1,0,1,0,0,0
A2W5Q0IVJUS7Y6,English,67,male,test,test_coffee,25903,1,1,0,0,Cafe E.,Cafe A.,Cafes A and B.,mo-l,mo-h,ms-h,0,1,1,1,0,0,1,0,1,1,0,0,0,0
A2W5Q0IVJUS7Y6,English,67,male,control,control_why,39317,1,1,0,0,NA,NA,NA,NA,NA,NA,NA,1,1,1,0,0,1,0,1,1,0,0,0,0
A2W5Q0IVJUS7Y6,English,67,male,test,test_yarn,31056,1,1,1,0,Stall E.,Stall A.,Stalls D and E.,mo-l,mo-h,ms-l,0,1,1,0,1,0,1,0,1,1,0,1,0,0
A2W5Q0IVJUS7Y6,English,67,male,test,test_books,34015,1,1,1,0,"Bookstores A, B, C, D and E.",Bookstore A.,Bookstores A and B.,exh,mo-h,ms-h,1,1,0,1,0,0,1,1,1,0,1,0,0,0
A2W5Q0IVJUS7Y6,English,67,male,control,control_when,28496,1,1,0,0,NA,NA,NA,NA,NA,NA,NA,1,0,1,0,0,1,1,1,0,1,0,0,0
A2W5Q0IVJUS7Y6,English,67,male,exit_quest,NA,301156,No%2Ca traveler would 0nly go to a restaurant.,Yes%2C a little but I think a traveler only go to a restaurant and not somewhere else.,thank you,NA,NA,NA,NA,NA,NA,NA,NA,NA,NA,NA,NA,NA,NA,NA,NA,NA,NA,NA,NA,NA
AKAPWAUEDPVGV,english,30,female,consent,NA,96179,NA,NA,NA,NA,NA,NA,NA,NA,NA,NA,NA,NA,NA,NA,NA,NA,NA,NA,NA,NA,NA,NA,NA,NA
AKAPWAUEDPVGV,english,30,female,train,train_f,18711,1,0,1,0,NA,NA,NA,NA,NA,NA,NA,NA,NA,NA,NA,NA,NA,NA,NA,NA,NA,NA,NA,NA
AKAPWAUEDPVGV,english,30,female,train,train_m,157969,0,1,1,0,NA,NA,NA,NA,NA,NA,NA,NA,NA,NA,NA,NA,NA,NA,NA,NA,NA,NA,NA,NA
AKAPWAUEDPVGV,english,30,female,test,test_coffee,47236,0,1,0,0,Cafes D and E.,Cafes A and B.,Cafe A.,ms-l,ms-h,mo-h,0,1,0,1,1,0,1,0,0,0,1,0,0,0
AKAPWAUEDPVGV,english,30,female,test,test_books,16545,0,1,0,0,Bookstores D and E.,Bookstores A and B.,"Bookstores A, B, C, D and E.",ms-l,ms-h,exh,1,0,0,1,1,0,1,0,0,0,1,0,0,0
AKAPWAUEDPVGV,english,30,female,control,control_when,5534,0,0,1,0,NA,NA,NA,NA,NA,NA,NA,0,0,1,1,0,1,0,0,0,1,0,0,0
AKAPWAUEDPVGV,english,30,female,test,test_hair,13047,0,1,0,0,Stylists D and E.,Stylist E.,Stylist A.,ms-l,mo-l,mo-h,0,1,1,0,1,0,1,0,0,1,0,0,0,0
AKAPWAUEDPVGV,english,30,female,control,control_what,3843,0,1,0,0,NA,NA,NA,NA,NA,NA,NA,1,1,0,1,0,1,0,0,1,0,0,0,0
AKAPWAUEDPVGV,english,30,female,test,test_dentist,4461,0,1,0,0,Dentist F.,Dentists D and E.,"Dentists A, B, C, D and E.",fa,ms-l,exh,1,0,0,0,1,0,1,0,0,0,0,1,0,0
AKAPWAUEDPVGV,english,30,female,test,test_shoes,8213,0,0,1,0,"Stores A, B, C, D and E.",Store A.,Stores D and E.,exh,mo-h,ms-l,1,1,0,0,1,0,1,0,0,0,0,1,0,0
AKAPWAUEDPVGV,english,30,female,control,control_how,4222,0,0,1,0,NA,NA,NA,NA,NA,NA,NA,1,0,0,1,0,1,0,0,0,0,1,0,0
AKAPWAUEDPVGV,english,30,female,test,test_yarn,6699,0,0,1,0,Stalls A and B.,Stalls D and E.,Stall F.,ms-h,ms-l,fa,0,0,0,1,1,0,1,0,0,0,0,0,0,0
AKAPWAUEDPVGV,english,30,female,control,control_why,10224,0,1,0,0,NA,NA,NA,NA,NA,NA,NA,0,0,1,1,0,1,0,0,0,0,0,0,0
AKAPWAUEDPVGV,english,30,female,exit_quest,NA,279010,almost every restaurants save the brunch but the specific restaurants are more useful than others,no,it's interesting,NA,NA,NA,NA,NA,NA,NA,NA,NA,NA,NA,NA,NA,NA,NA,NA,NA,NA,NA,NA,NA
A39BSJLRE2AQD4,english,35,male,consent,NA,41695,NA,NA,NA,NA,NA,NA,NA,NA,NA,NA,NA,NA,NA,NA,NA,NA,NA,NA,NA,NA,NA,NA,NA,NA
A39BSJLRE2AQD4,english,35,male,train,train_f,67488,1,1,0,0,NA,NA,NA,NA,NA,NA,NA,NA,NA,NA,NA,NA,NA,NA,NA,NA,NA,NA,NA,NA
A39BSJLRE2AQD4,english,35,male,train,train_m,21589,1,1,1,0,NA,NA,NA,NA,NA,NA,NA,NA,NA,NA,NA,NA,NA,NA,NA,NA,NA,NA,NA,NA
A39BSJLRE2AQD4,english,35,male,test,test_books,106597,1,1,0,0,Bookstores D and E.,Bookstores A and B.,Bookstore E.,ms-l,ms-h,mo-l,0,0,1,1,1,0,1,0,0,0,1,1,0,0
A39BSJLRE2AQD4,english,35,male,control,control_how,41849,1,1,0,0,NA,NA,NA,NA,NA,NA,NA,0,1,1,1,0,1,0,0,0,1,1,0,0
A39BSJLRE2AQD4,english,35,male,test,test_hair,21429,0,1,0,0,Stylist E.,Stylists D and E.,Stylist F.,mo-l,ms-l,fa,0,0,1,0,1,0,1,0,0,0,0,1,0,0
A39BSJLRE2AQD4,english,35,male,test,test_shoes,8682,0,1,0,0,Stores A and B.,Store F.,Store A.,ms-h,fa,mo-h,0,1,0,1,0,0,1,0,0,0,0,0,0,0
A39BSJLRE2AQD4,english,35,male,control,control_what,11255,0,1,0,0,NA,NA,NA,NA,NA,NA,NA,1,0,1,0,0,1,0,0,0,0,0,0,0
A39BSJLRE2AQD4,english,35,male,test,test_yarn,17957,1,1,0,0,Stall F.,Stall E.,Stalls D and E.,fa,mo-l,ms-l,0,0,1,0,1,0,1,0,0,1,0,0,0,0
A39BSJLRE2AQD4,english,35,male,control,control_why,14512,1,1,0,0,NA,NA,NA,NA,NA,NA,NA,0,1,0,1,0,1,0,0,1,0,0,0,0
A39BSJLRE2AQD4,english,35,male,test,test_coffee,18280,0,1,0,0,Cafes D and E.,"Cafes A, B, C, D and E.",Cafe E.,ms-l,exh,mo-l,1,0,1,0,1,0,1,1,0,0,0,0,0,0
A39BSJLRE2AQD4,english,35,male,test,test_dentist,6206,0,0,1,0,Dentist A.,Dentist E.,Dentists D and E.,mo-h,mo-l,ms-l,0,1,1,0,1,0,1,0,0,0,0,1,0,0
A39BSJLRE2AQD4,english,35,male,control,control_when,9423,0,1,0,0,NA,NA,NA,NA,NA,NA,NA,1,1,0,1,0,1,0,0,0,0,1,0,0
A39BSJLRE2AQD4,english,35,male,exit_quest,NA,502341,Brunch%2C that long and lazy late morning mean which stretches in to the early afternoon.,No difficult its very good.,Nice,NA,NA,NA,NA,NA,NA,NA,NA,NA,NA,NA,NA,NA,NA,NA,NA,NA,NA,NA,NA,NA
A125AOX978LDG7,English ,34,female,consent,NA,37078,NA,NA,NA,NA,NA,NA,NA,NA,NA,NA,NA,NA,NA,NA,NA,NA,NA,NA,NA,NA,NA,NA,NA,NA
A125AOX978LDG7,English ,34,female,train,train_f,49209,0,0,0,1,NA,NA,NA,NA,NA,NA,NA,NA,NA,NA,NA,NA,NA,NA,NA,NA,NA,NA,NA,NA
A125AOX978LDG7,English ,34,female,train,train_m,60560,0,0,0,1,NA,NA,NA,NA,NA,NA,NA,NA,NA,NA,NA,NA,NA,NA,NA,NA,NA,NA,NA,NA
A125AOX978LDG7,English ,34,female,test,test_books,69833,1,1,1,0,Bookstores A and B.,Bookstores D and E.,Bookstore F.,ms-h,ms-l,fa,0,0,0,1,1,0,1,0,0,0,1,1,0,0
A125AOX978LDG7,English ,34,female,test,test_shoes,59838,1,1,1,0,Store E.,Store A.,Stores A and B.,mo-l,mo-h,ms-h,0,1,1,1,0,0,1,0,1,1,1,0,0,0
A125AOX978LDG7,English ,34,female,control,control_what,28031,1,0,0,0,NA,NA,NA,NA,NA,NA,NA,1,1,1,0,0,1,0,1,1,1,0,0,0
A125AOX978LDG7,English ,34,female,test,test_hair,26132,1,1,1,0,Stylists D and E.,Stylist E.,Stylists A and B.,ms-l,mo-l,ms-h,0,0,1,1,1,0,1,0,0,1,1,1,0,0
A125AOX978LDG7,English ,34,female,test,test_dentist,27980,0,0,0,1,Dentists A and B.,Dentists D and E.,Dentist F.,ms-h,ms-l,fa,0,0,0,1,1,0,1,0,0,0,0,0,0,1
A125AOX978LDG7,English ,34,female,control,control_when,31461,0,0,0,1,NA,NA,NA,NA,NA,NA,NA,0,0,1,1,0,1,0,0,0,0,0,0,1
A125AOX978LDG7,English ,34,female,test,test_yarn,54201,1,1,1,0,Stall A.,Stall E.,Stalls D and E.,mo-h,mo-l,ms-l,0,1,1,0,1,0,1,0,1,1,0,1,0,0
A125AOX978LDG7,English ,34,female,control,control_why,33830,1,0,0,0,NA,NA,NA,NA,NA,NA,NA,1,1,0,1,0,1,0,1,1,0,1,0,0
A125AOX978LDG7,English ,34,female,test,test_coffee,28087,1,1,1,0,Cafe E.,Cafe A.,Cafes A and B.,mo-l,mo-h,ms-h,0,1,1,1,0,0,1,0,1,1,1,0,0,0
A125AOX978LDG7,English ,34,female,control,control_how,30029,0,0,0,1,NA,NA,NA,NA,NA,NA,NA,1,1,1,0,0,1,0,1,1,1,0,0,0
A125AOX978LDG7,English ,34,female,exit_quest,NA,131511,I wouldn’t answer differently because the questions are the same except they are worded differently. ,No.,Not at the moment. ,NA,NA,NA,NA,NA,NA,NA,NA,NA,NA,NA,NA,NA,NA,NA,NA,NA,NA,NA,NA,NA
A20Q6LGMUJLJDG,ENGLISH,40,female,consent,NA,42851,NA,NA,NA,NA,NA,NA,NA,NA,NA,NA,NA,NA,NA,NA,NA,NA,NA,NA,NA,NA,NA,NA,NA,NA
A20Q6LGMUJLJDG,ENGLISH,40,female,train,train_m,56702,0,0,1,0,NA,NA,NA,NA,NA,NA,NA,NA,NA,NA,NA,NA,NA,NA,NA,NA,NA,NA,NA,NA
A20Q6LGMUJLJDG,ENGLISH,40,female,train,train_f,58060,0,1,0,0,NA,NA,NA,NA,NA,NA,NA,NA,NA,NA,NA,NA,NA,NA,NA,NA,NA,NA,NA,NA
A20Q6LGMUJLJDG,ENGLISH,40,female,test,test_shoes,235265,0,1,0,0,Stores D and E.,Store A.,Stores A and B.,ms-l,mo-h,ms-h,0,1,0,1,1,0,1,0,1,0,0,0,0,0
A20Q6LGMUJLJDG,ENGLISH,40,female,test,test_coffee,72552,1,1,1,0,Cafe A.,Cafe F.,Cafes A and B.,mo-h,fa,ms-h,0,1,0,1,0,0,1,0,1,0,1,0,0,0
A20Q6LGMUJLJDG,ENGLISH,40,female,control,control_when,14094,0,1,0,0,NA,NA,NA,NA,NA,NA,NA,1,0,1,0,0,1,0,1,0,1,0,0,0
A20Q6LGMUJLJDG,ENGLISH,40,female,test,test_hair,9770,0,0,1,0,Stylist A.,Stylists D and E.,Stylists A and B.,mo-h,ms-l,ms-h,0,1,0,1,1,0,1,0,0,0,1,0,0,0
A20Q6LGMUJLJDG,ENGLISH,40,female,test,test_yarn,9526,1,0,0,0,Stall A.,Stall E.,"Stalls A, B, C, D and E.",mo-h,mo-l,exh,1,1,1,0,0,0,1,0,1,0,0,0,0,0
A20Q6LGMUJLJDG,ENGLISH,40,female,control,control_why,9655,0,1,0,0,NA,NA,NA,NA,NA,NA,NA,1,1,0,0,0,1,0,1,0,0,0,0,0
A20Q6LGMUJLJDG,ENGLISH,40,female,test,test_dentist,18617,0,1,0,0,Dentist F.,Dentist A.,Dentists D and E.,fa,mo-h,ms-l,0,1,0,0,1,0,1,0,1,0,0,0,0,0
A20Q6LGMUJLJDG,ENGLISH,40,female,control,control_what,44457,1,0,0,0,NA,NA,NA,NA,NA,NA,NA,1,0,0,1,0,1,0,1,0,0,0,0,0
A20Q6LGMUJLJDG,ENGLISH,40,female,test,test_books,91577,1,0,0,0,Bookstores D and E.,Bookstore A.,Bookstores A and B.,ms-l,mo-h,ms-h,0,1,0,1,1,0,1,0,0,0,0,1,0,0
A20Q6LGMUJLJDG,ENGLISH,40,female,control,control_how,29877,0,1,0,0,NA,NA,NA,NA,NA,NA,NA,1,0,1,1,0,1,0,0,0,0,1,0,0
A20Q6LGMUJLJDG,ENGLISH,40,female,exit_quest,NA,146257,NONE,NO,NICE,NA,NA,NA,NA,NA,NA,NA,NA,NA,NA,NA,NA,NA,NA,NA,NA,NA,NA,NA,NA,NA
A264G2H7KNNP3C,English,31,male,consent,NA,31531,NA,NA,NA,NA,NA,NA,NA,NA,NA,NA,NA,NA,NA,NA,NA,NA,NA,NA,NA,NA,NA,NA,NA,NA
A264G2H7KNNP3C,English,31,male,train,train_f,59373,0,0,0,1,NA,NA,NA,NA,NA,NA,NA,NA,NA,NA,NA,NA,NA,NA,NA,NA,NA,NA,NA,NA
A264G2H7KNNP3C,English,31,male,train,train_m,58597,0,0,1,0,NA,NA,NA,NA,NA,NA,NA,NA,NA,NA,NA,NA,NA,NA,NA,NA,NA,NA,NA,NA
A264G2H7KNNP3C,English,31,male,test,test_books,39805,0,1,0,0,Bookstore E.,Bookstore A.,Bookstore F.,mo-l,mo-h,fa,0,1,1,0,0,0,1,0,1,0,0,0,0,0
A264G2H7KNNP3C,English,31,male,test,test_shoes,73008,0,1,1,0,Store F.,Store A.,"Stores A, B, C, D and E.",fa,mo-h,exh,1,1,0,0,0,0,1,1,1,0,0,0,0,0
A264G2H7KNNP3C,English,31,male,control,control_what,37400,1,0,0,0,NA,NA,NA,NA,NA,NA,NA,1,0,0,0,0,1,1,1,0,0,0,0,0
A264G2H7KNNP3C,English,31,male,test,test_coffee,16805,0,1,1,0,Cafes D and E.,Cafe A.,Cafes A and B.,ms-l,mo-h,ms-h,0,1,0,1,1,0,1,0,1,0,1,0,0,0
A264G2H7KNNP3C,English,31,male,control,control_why,33558,1,1,0,0,NA,NA,NA,NA,NA,NA,NA,1,0,1,1,0,1,0,1,0,1,0,0,0
A264G2H7KNNP3C,English,31,male,test,test_dentist,30877,0,0,0,1,Dentists A and B.,Dentist A.,Dentist E.,ms-h,mo-h,mo-l,0,1,1,1,0,0,1,0,0,0,0,0,0,1
A264G2H7KNNP3C,English,31,male,test,test_hair,119003,0,1,0,0,Stylist E.,Stylists A and B.,Stylist F.,mo-l,ms-h,fa,0,0,1,1,0,0,1,0,0,0,1,0,0,0
A264G2H7KNNP3C,English,31,male,control,control_how,26788,0,1,0,0,NA,NA,NA,NA,NA,NA,NA,0,1,1,0,0,1,0,0,0,1,0,0,0
A264G2H7KNNP3C,English,31,male,test,test_yarn,61427,0,0,0,1,Stall E.,Stalls A and B.,Stall A.,mo-l,ms-h,mo-h,0,1,1,1,0,0,1,0,0,0,0,0,0,1
A264G2H7KNNP3C,English,31,male,control,control_when,25295,0,0,0,1,NA,NA,NA,NA,NA,NA,NA,1,1,1,0,0,1,0,0,0,0,0,0,1
A264G2H7KNNP3C,English,31,male,exit_quest,NA,351807,The difference is knowing what places serve brunch%2C -or- what place would I suggest someone go specifically.,It was not difficult. It felt to be a very simple survey on understanding of language of speech. ,,NA,NA,NA,NA,NA,NA,NA,NA,NA,NA,NA,NA,NA,NA,NA,NA,NA,NA,NA,NA,NA
A2RC8VX4LS3WQW,English,29,female,consent,NA,176206,NA,NA,NA,NA,NA,NA,NA,NA,NA,NA,NA,NA,NA,NA,NA,NA,NA,NA,NA,NA,NA,NA,NA,NA
A2RC8VX4LS3WQW,English,29,female,train,train_m,43383,0,0,1,0,NA,NA,NA,NA,NA,NA,NA,NA,NA,NA,NA,NA,NA,NA,NA,NA,NA,NA,NA,NA
A2RC8VX4LS3WQW,English,29,female,train,train_f,37896,0,0,0,1,NA,NA,NA,NA,NA,NA,NA,NA,NA,NA,NA,NA,NA,NA,NA,NA,NA,NA,NA,NA
A2RC8VX4LS3WQW,English,29,female,test,test_shoes,101767,0,0,0,1,Store E.,Stores A and B.,Stores D and E.,mo-l,ms-h,ms-l,0,0,1,1,1,0,1,0,0,0,0,0,0,1
A2RC8VX4LS3WQW,English,29,female,test,test_hair,46061,1,1,1,0,Stylist A.,Stylists A and B.,Stylists D and E.,mo-h,ms-h,ms-l,0,1,0,1,1,0,1,0,1,0,1,1,0,0
A2RC8VX4LS3WQW,English,29,female,control,control_when,53968,0,0,1,0,NA,NA,NA,NA,NA,NA,NA,1,0,1,1,0,1,0,1,0,1,1,0,0
A2RC8VX4LS3WQW,English,29,female,test,test_yarn,46282,0,0,0,1,Stalls A and B.,Stall F.,Stall E.,ms-h,fa,mo-l,0,0,1,1,0,0,1,0,0,0,0,0,0,1
A2RC8VX4LS3WQW,English,29,female,control,control_how,37714,0,0,1,0,NA,NA,NA,NA,NA,NA,NA,0,1,1,0,0,1,0,0,0,0,0,0,1
A2RC8VX4LS3WQW,English,29,female,test,test_dentist,51582,0,0,0,1,Dentist E.,Dentist A.,Dentists D and E.,mo-l,mo-h,ms-l,0,1,1,0,1,0,1,0,0,0,0,0,0,1
A2RC8VX4LS3WQW,English,29,female,test,test_coffee,35810,0,0,0,1,Cafe F.,Cafes A and B.,Cafe E.,fa,ms-h,mo-l,0,0,1,1,0,0,1,0,0,0,0,0,0,1
A2RC8VX4LS3WQW,English,29,female,control,control_why,27847,1,0,0,0,NA,NA,NA,NA,NA,NA,NA,0,1,1,0,0,1,0,0,0,0,0,0,1
A2RC8VX4LS3WQW,English,29,female,test,test_books,14307,0,0,0,1,Bookstore F.,Bookstores D and E.,Bookstores A and B.,fa,ms-l,ms-h,0,0,0,1,1,0,1,0,0,0,0,0,0,1
A2RC8VX4LS3WQW,English,29,female,control,control_what,28998,1,0,0,0,NA,NA,NA,NA,NA,NA,NA,0,0,1,1,0,1,0,0,0,0,0,0,1
A2RC8VX4LS3WQW,English,29,female,exit_quest,NA,77872,Yes%2C one question is asking for a list of places. While the other one is seeking a recommendation. ,No%2C tad bit confusing.,No,NA,NA,NA,NA,NA,NA,NA,NA,NA,NA,NA,NA,NA,NA,NA,NA,NA,NA,NA,NA,NA
A12569NJ7KY1KX,english,35,female,consent,NA,41964,NA,NA,NA,NA,NA,NA,NA,NA,NA,NA,NA,NA,NA,NA,NA,NA,NA,NA,NA,NA,NA,NA,NA,NA
A12569NJ7KY1KX,english,35,female,train,train_m,52040,0,0,1,0,NA,NA,NA,NA,NA,NA,NA,NA,NA,NA,NA,NA,NA,NA,NA,NA,NA,NA,NA,NA
A12569NJ7KY1KX,english,35,female,train,train_f,53865,0,0,1,0,NA,NA,NA,NA,NA,NA,NA,NA,NA,NA,NA,NA,NA,NA,NA,NA,NA,NA,NA,NA
A12569NJ7KY1KX,english,35,female,test,test_dentist,34303,1,0,0,0,Dentist E.,Dentists D and E.,Dentist A.,mo-l,ms-l,mo-h,0,1,1,0,1,0,1,0,0,1,0,0,0,0
A12569NJ7KY1KX,english,35,female,test,test_yarn,49713,0,1,0,0,Stalls D and E.,Stalls A and B.,Stall A.,ms-l,ms-h,mo-h,0,1,0,1,1,0,1,0,0,0,1,0,0,0
A12569NJ7KY1KX,english,35,female,control,control_what,28213,1,0,0,0,NA,NA,NA,NA,NA,NA,NA,1,0,1,1,0,1,0,0,0,1,0,0,0
A12569NJ7KY1KX,english,35,female,test,test_coffee,36757,0,0,1,0,Cafes D and E.,Cafe E.,Cafes A and B.,ms-l,mo-l,ms-h,0,0,1,1,1,0,1,0,0,0,1,0,0,0
A12569NJ7KY1KX,english,35,female,control,control_why,36610,1,0,0,0,NA,NA,NA,NA,NA,NA,NA,0,1,1,1,0,1,0,0,0,1,0,0,0
A12569NJ7KY1KX,english,35,female,test,test_shoes,50767,0,1,0,0,Store A.,"Stores A, B, C, D and E.",Stores D and E.,mo-h,exh,ms-l,1,1,0,0,1,0,1,1,0,0,0,0,0,0
A12569NJ7KY1KX,english,35,female,test,test_books,9098,1,0,0,0,Bookstores A and B.,Bookstore F.,Bookstore E.,ms-h,fa,mo-l,0,0,1,1,0,0,1,0,0,0,1,0,0,0
A12569NJ7KY1KX,english,35,female,control,control_when,23243,0,0,1,0,NA,NA,NA,NA,NA,NA,NA,0,1,1,0,0,1,0,0,0,1,0,0,0
A12569NJ7KY1KX,english,35,female,test,test_hair,4840,0,1,0,0,"Stylists A, B, C, D and E.",Stylist A.,Stylist E.,exh,mo-h,mo-l,1,1,1,0,0,0,1,0,1,0,0,0,0,0
A12569NJ7KY1KX,english,35,female,control,control_how,25275,0,1,0,0,NA,NA,NA,NA,NA,NA,NA,1,1,0,0,0,1,0,1,0,0,0,0,0
A12569NJ7KY1KX,english,35,female,exit_quest,NA,95765,GRT %0ACOFFE DAY%0ARELIANCE%0A%0A,NO,NO ELSE,NA,NA,NA,NA,NA,NA,NA,NA,NA,NA,NA,NA,NA,NA,NA,NA,NA,NA,NA,NA,NA
A30FCN88F8DZOT,ENGLISH,28,male,consent,NA,17529,NA,NA,NA,NA,NA,NA,NA,NA,NA,NA,NA,NA,NA,NA,NA,NA,NA,NA,NA,NA,NA,NA,NA,NA
A30FCN88F8DZOT,ENGLISH,28,male,train,train_f,45221,0,1,0,0,NA,NA,NA,NA,NA,NA,NA,NA,NA,NA,NA,NA,NA,NA,NA,NA,NA,NA,NA,NA
A30FCN88F8DZOT,ENGLISH,28,male,train,train_m,85098,0,0,1,0,NA,NA,NA,NA,NA,NA,NA,NA,NA,NA,NA,NA,NA,NA,NA,NA,NA,NA,NA,NA
A30FCN88F8DZOT,ENGLISH,28,male,test,test_hair,129047,1,1,0,0,Stylists A and B.,Stylist A.,Stylist E.,ms-h,mo-h,mo-l,0,1,1,1,0,0,1,0,1,0,1,0,0,0
A30FCN88F8DZOT,ENGLISH,28,male,test,test_books,15740,1,0,0,0,Bookstore A.,Bookstore E.,Bookstore F.,mo-h,mo-l,fa,0,1,1,0,0,0,1,0,1,0,0,0,0,0
A30FCN88F8DZOT,ENGLISH,28,male,control,control_when,75763,0,1,0,0,NA,NA,NA,NA,NA,NA,NA,1,1,0,0,0,1,0,1,0,0,0,0,0
A30FCN88F8DZOT,ENGLISH,28,male,test,test_coffee,103515,0,0,1,0,Cafes D and E.,"Cafes A, B, C, D and E.",Cafes A and B.,ms-l,exh,ms-h,1,0,0,1,1,0,1,0,0,0,1,0,0,0
A30FCN88F8DZOT,ENGLISH,28,male,test,test_yarn,69108,0,0,0,1,Stalls D and E.,"Stalls A, B, C, D and E.",Stall E.,ms-l,exh,mo-l,1,0,1,0,1,0,1,0,0,0,0,0,0,1
A30FCN88F8DZOT,ENGLISH,28,male,control,control_what,59245,0,0,1,0,NA,NA,NA,NA,NA,NA,NA,0,1,0,1,0,1,0,0,0,0,0,0,1
A30FCN88F8DZOT,ENGLISH,28,male,test,test_dentist,40115,0,0,0,1,Dentist E.,Dentists D and E.,"Dentists A, B, C, D and E.",mo-l,ms-l,exh,1,0,1,0,1,0,1,0,0,0,0,0,0,1
A30FCN88F8DZOT,ENGLISH,28,male,control,control_why,81711,0,0,0,1,NA,NA,NA,NA,NA,NA,NA,0,1,0,1,0,1,0,0,0,0,0,0,1
A30FCN88F8DZOT,ENGLISH,28,male,test,test_shoes,19076,1,0,0,0,Stores A and B.,Store F.,Stores D and E.,ms-h,fa,ms-l,0,0,0,1,1,0,1,0,0,0,1,0,0,0
A30FCN88F8DZOT,ENGLISH,28,male,control,control_how,108551,0,0,1,0,NA,NA,NA,NA,NA,NA,NA,0,0,1,1,0,1,0,0,0,1,0,0,0
A30FCN88F8DZOT,ENGLISH,28,male,exit_quest,NA,124887,IS THERE IS ANY OTHER RESTAURANTS WHO SERVE BRUNCH IN TOWN ..?,NO .. ITS A BIT EASY TO DO IF WE READ THE STATEMENTS CAREFULLY,NOTHING,NA,NA,NA,NA,NA,NA,NA,NA,NA,NA,NA,NA,NA,NA,NA,NA,NA,NA,NA,NA,NA
A2W1QLIYADUJU3,ENGLISH,37,male,consent,NA,50749,NA,NA,NA,NA,NA,NA,NA,NA,NA,NA,NA,NA,NA,NA,NA,NA,NA,NA,NA,NA,NA,NA,NA,NA
A2W1QLIYADUJU3,ENGLISH,37,male,train,train_m,30838,1,1,1,0,NA,NA,NA,NA,NA,NA,NA,NA,NA,NA,NA,NA,NA,NA,NA,NA,NA,NA,NA,NA
A2W1QLIYADUJU3,ENGLISH,37,male,train,train_f,11941,1,1,1,0,NA,NA,NA,NA,NA,NA,NA,NA,NA,NA,NA,NA,NA,NA,NA,NA,NA,NA,NA,NA
A2W1QLIYADUJU3,ENGLISH,37,male,test,test_hair,138682,1,1,0,0,Stylist A.,Stylists D and E.,Stylists A and B.,mo-h,ms-l,ms-h,0,1,0,1,1,0,1,0,1,0,0,1,0,0
A2W1QLIYADUJU3,ENGLISH,37,male,test,test_dentist,6211,1,1,1,0,Dentists D and E.,Dentist E.,Dentists A and B.,ms-l,mo-l,ms-h,0,0,1,1,1,0,1,0,0,1,1,1,0,0
A2W1QLIYADUJU3,ENGLISH,37,male,control,control_when,20630,1,0,0,0,NA,NA,NA,NA,NA,NA,NA,0,1,1,1,0,1,0,0,1,1,1,0,0
A2W1QLIYADUJU3,ENGLISH,37,male,test,test_books,10359,1,1,0,0,Bookstores D and E.,Bookstores A and B.,Bookstore F.,ms-l,ms-h,fa,0,0,0,1,1,0,1,0,0,0,1,1,0,0
A2W1QLIYADUJU3,ENGLISH,37,male,control,control_what,48525,1,0,0,0,NA,NA,NA,NA,NA,NA,NA,0,0,1,1,0,1,0,0,0,1,1,0,0
A2W1QLIYADUJU3,ENGLISH,37,male,test,test_yarn,92971,0,1,0,0,Stall F.,Stalls D and E.,Stall E.,fa,ms-l,mo-l,0,0,1,0,1,0,1,0,0,0,0,1,0,0
A2W1QLIYADUJU3,ENGLISH,37,male,test,test_coffee,48913,1,0,0,0,Cafes D and E.,Cafe F.,Cafe A.,ms-l,fa,mo-h,0,1,0,0,1,0,1,0,0,0,0,1,0,0
A2W1QLIYADUJU3,ENGLISH,37,male,control,control_why,46863,1,0,0,0,NA,NA,NA,NA,NA,NA,NA,1,0,0,1,0,1,0,0,0,0,1,0,0
A2W1QLIYADUJU3,ENGLISH,37,male,test,test_shoes,45741,0,0,1,0,Store E.,Store A.,Stores A and B.,mo-l,mo-h,ms-h,0,1,1,1,0,0,1,0,0,0,1,0,0,0
A2W1QLIYADUJU3,ENGLISH,37,male,control,control_how,17725,1,0,0,0,NA,NA,NA,NA,NA,NA,NA,1,1,1,0,0,1,0,0,0,1,0,0,0
A2W1QLIYADUJU3,ENGLISH,37,male,exit_quest,NA,676334,brunch that long and lazy latter morning mean witch stretches into early afternoon.,Nothing because easily understanding,nice and this study very useful.,NA,NA,NA,NA,NA,NA,NA,NA,NA,NA,NA,NA,NA,NA,NA,NA,NA,NA,NA,NA,NA
A1TSQCY9QR6RM7,English,55,female,consent,NA,32474,NA,NA,NA,NA,NA,NA,NA,NA,NA,NA,NA,NA,NA,NA,NA,NA,NA,NA,NA,NA,NA,NA,NA,NA
A1TSQCY9QR6RM7,English,55,female,train,train_m,65642,0,1,1,0,NA,NA,NA,NA,NA,NA,NA,NA,NA,NA,NA,NA,NA,NA,NA,NA,NA,NA,NA,NA
A1TSQCY9QR6RM7,English,55,female,train,train_f,55182,0,0,0,1,NA,NA,NA,NA,NA,NA,NA,NA,NA,NA,NA,NA,NA,NA,NA,NA,NA,NA,NA,NA
A1TSQCY9QR6RM7,English,55,female,test,test_shoes,113948,1,0,0,0,Stores A and B.,"Stores A, B, C, D and E.",Store E.,ms-h,exh,mo-l,1,0,1,1,0,0,1,0,0,0,1,0,0,0
A1TSQCY9QR6RM7,English,55,female,test,test_books,48188,0,0,0,1,Bookstores A and B.,Bookstore E.,Bookstores D and E.,ms-h,mo-l,ms-l,0,0,1,1,1,0,1,0,0,0,0,0,0,1
A1TSQCY9QR6RM7,English,55,female,control,control_what,28492,1,0,0,0,NA,NA,NA,NA,NA,NA,NA,0,1,1,1,0,1,0,0,0,0,0,0,1
A1TSQCY9QR6RM7,English,55,female,test,test_dentist,50700,0,0,0,1,Dentist A.,Dentists A and B.,"Dentists A, B, C, D and E.",mo-h,ms-h,exh,1,1,0,1,0,0,1,0,0,0,0,0,0,1
A1TSQCY9QR6RM7,English,55,female,control,control_when,51515,0,0,0,1,NA,NA,NA,NA,NA,NA,NA,1,0,1,0,0,1,0,0,0,0,0,0,1
A1TSQCY9QR6RM7,English,55,female,test,test_coffee,38667,0,0,0,1,Cafes D and E.,Cafe A.,Cafe E.,ms-l,mo-h,mo-l,0,1,1,0,1,0,1,0,0,0,0,0,0,1
A1TSQCY9QR6RM7,English,55,female,test,test_yarn,27476,0,1,0,0,Stalls D and E.,Stalls A and B.,Stall E.,ms-l,ms-h,mo-l,0,0,1,1,1,0,1,0,0,0,1,0,0,0
A1TSQCY9QR6RM7,English,55,female,control,control_how,59136,0,0,1,0,NA,NA,NA,NA,NA,NA,NA,0,1,1,1,0,1,0,0,0,1,0,0,0
A1TSQCY9QR6RM7,English,55,female,test,test_hair,75412,1,0,0,0,Stylist E.,Stylist A.,Stylists D and E.,mo-l,mo-h,ms-l,0,1,1,0,1,0,1,0,0,1,0,0,0,0
A1TSQCY9QR6RM7,English,55,female,control,control_why,27264,1,0,0,0,NA,NA,NA,NA,NA,NA,NA,1,1,0,1,0,1,0,0,1,0,0,0,0
A1TSQCY9QR6RM7,English,55,female,exit_quest,NA,312056,No%2C the answer would remain the same however I might ask for further clarification as to what kind of restaurant she prefers.,Somewhat%2C yes. %0AI found myself inferring when I shouldn't and not sure if that was the acceptable answer.,"Yes. %0AThere was an inconsistency in one of the questions. In one of the stories%2C the question asks about coworker opinions and the answers refer to relatives. %0ANot sure if that was intentional but I wanted to point it out.%0A Dee asks%2C ""Where does Joe go for his dental work?%0ACoworker 1 says%2C ""Dentist A.""%0A%0ACoworker 2 says%2C ""Dentists A and B.""%0A%0ACoworker 3 says%2C ""Dentists A%2C B%2C C%2C D and E.""%0A%0A%0AWho knows where Joe goes for his dental work? (Choose all that apply)%0ARelative 1  Relative 2  Relative 3  No one",NA,NA,NA,NA,NA,NA,NA,NA,NA,NA,NA,NA,NA,NA,NA,NA,NA,NA,NA,NA,NA
A1CJZOKUD5J0H1,ENGLISH,27,female,consent,NA,488227,NA,NA,NA,NA,NA,NA,NA,NA,NA,NA,NA,NA,NA,NA,NA,NA,NA,NA,NA,NA,NA,NA,NA,NA
A1CJZOKUD5J0H1,ENGLISH,27,female,train,train_f,73833,0,0,0,1,NA,NA,NA,NA,NA,NA,NA,NA,NA,NA,NA,NA,NA,NA,NA,NA,NA,NA,NA,NA
A1CJZOKUD5J0H1,ENGLISH,27,female,train,train_m,7830,0,0,1,0,NA,NA,NA,NA,NA,NA,NA,NA,NA,NA,NA,NA,NA,NA,NA,NA,NA,NA,NA,NA
A1CJZOKUD5J0H1,ENGLISH,27,female,test,test_hair,281691,1,1,0,0,Stylist E.,Stylist F.,Stylist A.,mo-l,fa,mo-h,0,1,1,0,0,0,1,0,0,1,0,0,0,0
A1CJZOKUD5J0H1,ENGLISH,27,female,test,test_books,32654,0,1,1,0,Bookstore A.,Bookstores A and B.,Bookstore F.,mo-h,ms-h,fa,0,1,0,1,0,0,1,0,0,0,1,0,0,0
A1CJZOKUD5J0H1,ENGLISH,27,female,control,control_what,3805,1,1,0,0,NA,NA,NA,NA,NA,NA,NA,1,0,1,0,0,1,0,0,0,1,0,0,0
A1CJZOKUD5J0H1,ENGLISH,27,female,test,test_coffee,3640,0,1,1,0,Cafe E.,Cafe A.,Cafes D and E.,mo-l,mo-h,ms-l,0,1,1,0,1,0,1,0,1,0,0,1,0,0
