subject,native_lang,age,gender,trial,story,reaction_time,response_a,response_b,response_c,response_d,report_a,report_b,report_c,tag_a,tag_b,tag_c,exhaustive_seen,mention_one_high_seen,mention_one_low_seen,mention_some_high_seen,mention_some_low_seen,false_report_seen,none_of_above_seen,exhaustive_chosen,mention_one_high_chosen,mention_one_low_chosen,mention_some_high_chosen,mention_some_low_chosen,false_report_chosen,none_of_above_chosen
A1LOUZD99NZCT2,english,29,male,consent,NA,20121,NA,NA,NA,NA,NA,NA,NA,NA,NA,NA,NA,NA,NA,NA,NA,NA,NA,NA,NA,NA,NA,NA,NA,NA
A1LOUZD99NZCT2,english,29,male,train,train_m,11924,0,1,1,0,NA,NA,NA,NA,NA,NA,NA,NA,NA,NA,NA,NA,NA,NA,NA,NA,NA,NA,NA,NA
A1LOUZD99NZCT2,english,29,male,train,train_f,7041,1,0,0,0,NA,NA,NA,NA,NA,NA,NA,NA,NA,NA,NA,NA,NA,NA,NA,NA,NA,NA,NA,NA
A1LOUZD99NZCT2,english,29,male,high,high_inspector,3397,0,1,1,0,Restaurants A and B.,Restaurant E.,"Restaurants A, B, C, D, and E.",ms-h,mo-l,exh,1,0,1,1,0,0,1,1,0,1,0,0,0,0
A1LOUZD99NZCT2,english,29,male,low,low_brother,1717,1,0,0,0,Stall C.,Stalls C and D.,Stalls A and B.,mo-h,ms-h,ms-l,0,1,0,1,1,0,1,0,1,0,0,0,0,0
A1LOUZD99NZCT2,english,29,male,control,control_why,1855,0,1,1,0,NA,NA,NA,NA,NA,NA,NA,1,0,1,1,0,1,0,1,0,0,0,0,0
A1LOUZD99NZCT2,english,29,male,high,high_fbi,1945,0,0,1,0,Place D.,Places F and A.,Place E.,f,ms-h,mo-l,0,0,1,1,0,1,1,0,0,1,0,0,0,0
A1LOUZD99NZCT2,english,29,male,low,low_yoga,1945,1,0,1,0,"Studios F, E, D, C and B.",Studios C and B.,Studio F.,exh,ms-l,mo-h,1,1,0,0,1,0,1,1,1,0,0,0,0,0
A1LOUZD99NZCT2,english,29,male,control,control_when,2823,0,1,0,0,NA,NA,NA,NA,NA,NA,NA,1,0,0,1,0,1,1,1,0,0,0,0,0
A1LOUZD99NZCT2,english,29,male,high,high_firefighter,2238,0,0,1,0,The fourth and sixth floors.,The fifth and second floors.,"The fifth, second, fourth, third and sixth floors.",ms-l,ms-h,exh,1,0,0,1,1,0,1,1,0,0,0,0,0,0
A1LOUZD99NZCT2,english,29,male,low,low_pic,3260,1,1,0,0,Locations A and D.,Location A.,Location F.,ms-h,mo-h,mo-l,0,1,1,1,0,0,1,0,1,0,1,0,0,0
A1LOUZD99NZCT2,english,29,male,high,high_terrorism,2193,0,0,1,0,Store F.,Stores A and F.,Store E.,mo-l,ms-l,mo-h,0,1,1,0,1,0,1,0,1,0,0,0,0,0
A1LOUZD99NZCT2,english,29,male,control,control_how,1404,0,0,1,0,NA,NA,NA,NA,NA,NA,NA,1,1,0,1,0,1,0,1,0,0,0,0,0
A1LOUZD99NZCT2,english,29,male,low,low_coffee,3982,1,0,1,0,"Cafes E, B, F, C and D.",Cafe E.,Cafes F and D.,exh,mo-h,ms-l,1,1,0,0,1,0,1,1,0,0,0,1,0,0
A1LOUZD99NZCT2,english,29,male,high,high_operative,2136,0,1,1,0,The Northeast district.,The Northeast and Southwest districts.,The South and North districts.,mo-h,ms-h,ms-l,0,1,0,1,1,0,1,0,0,0,1,1,0,0
A1LOUZD99NZCT2,english,29,male,low,low_la,3598,0,0,0,1,Diner C.,Diners A and E.,Diner E.,mo-h,ms-l,mo-l,0,1,1,0,1,0,1,0,0,0,0,0,0,1
A1LOUZD99NZCT2,english,29,male,control,control_what,1934,0,1,1,0,NA,NA,NA,NA,NA,NA,NA,1,1,0,1,0,1,0,0,0,0,0,0,1
A1LOUZD99NZCT2,english,29,male,exit_quest,NA,42897,the coffee shop,no,no,NA,NA,NA,NA,NA,NA,NA,NA,NA,NA,NA,NA,NA,NA,NA,NA,NA,NA,NA,NA,NA
A2YVC1U50H2B4R,English,29,female,consent,NA,45290,NA,NA,NA,NA,NA,NA,NA,NA,NA,NA,NA,NA,NA,NA,NA,NA,NA,NA,NA,NA,NA,NA,NA,NA
A2YVC1U50H2B4R,English,29,female,train,train_f,14596,0,0,0,1,NA,NA,NA,NA,NA,NA,NA,NA,NA,NA,NA,NA,NA,NA,NA,NA,NA,NA,NA,NA
A2YVC1U50H2B4R,English,29,female,train,train_m,7497,0,0,1,0,NA,NA,NA,NA,NA,NA,NA,NA,NA,NA,NA,NA,NA,NA,NA,NA,NA,NA,NA,NA
A2YVC1U50H2B4R,English,29,female,low,low_la,23638,1,0,0,0,Diners C and F.,Diners A and E.,Diner C.,ms-h,ms-l,mo-h,0,1,0,1,1,0,1,0,0,0,1,0,0,0
A2YVC1U50H2B4R,English,29,female,high,high_inspector,29257,0,0,0,1,Restaurant E.,"Restaurants A, B, C, D, and E.",Restaurants C and E.,mo-l,exh,ms-l,1,0,1,0,1,0,1,0,0,0,0,0,0,1
A2YVC1U50H2B4R,English,29,female,low,low_yoga,6987,0,1,0,0,Studios C and B.,Studios F and E.,"Studios F, E, D, C and B.",ms-l,ms-h,exh,1,0,0,1,1,0,1,0,0,0,1,0,0,0
A2YVC1U50H2B4R,English,29,female,control,control_why,19369,1,0,0,0,NA,NA,NA,NA,NA,NA,NA,0,0,1,1,0,1,0,0,0,1,0,0,0
A2YVC1U50H2B4R,English,29,female,high,high_firefighter,19820,1,0,0,0,The fifth floor.,The fourth and sixth floors.,The fifth and second floors.,mo-h,ms-l,ms-h,0,1,0,1,1,0,1,0,1,0,0,0,0,0
A2YVC1U50H2B4R,English,29,female,low,low_pic,8408,0,0,1,0,Location F.,"Locations A, D, E, and F.",Location A.,mo-l,exh,mo-h,1,1,1,0,0,0,1,0,1,0,0,0,0,0
A2YVC1U50H2B4R,English,29,female,control,control_when,11051,0,0,0,1,NA,NA,NA,NA,NA,NA,NA,1,1,0,0,0,1,0,1,0,0,0,0,0
A2YVC1U50H2B4R,English,29,female,high,high_terrorism,5587,1,0,0,0,Stores E and B.,Stores A and F.,Store F.,ms-h,ms-l,mo-l,0,0,1,1,1,0,1,0,0,0,1,0,0,0
A2YVC1U50H2B4R,English,29,female,low,low_brother,5432,0,0,0,1,"Stalls C, D, A, F and B.",Stalls A and B.,Stall B.,exh,ms-l,mo-l,1,0,1,0,1,0,1,0,0,0,0,0,0,1
A2YVC1U50H2B4R,English,29,female,high,high_fbi,5087,0,0,1,0,Place E.,Places B and E.,Places F and A.,mo-l,ms-l,ms-h,0,0,1,1,1,0,1,0,0,0,1,0,0,0
A2YVC1U50H2B4R,English,29,female,control,control_what,14512,1,0,0,0,NA,NA,NA,NA,NA,NA,NA,0,1,1,1,0,1,0,0,0,1,0,0,0
A2YVC1U50H2B4R,English,29,female,low,low_coffee,4055,0,0,1,0,Cafes F and D.,Cafe D.,Cafe E.,ms-l,mo-l,mo-h,0,1,1,0,1,0,1,0,1,0,0,0,0,0
A2YVC1U50H2B4R,English,29,female,high,high_operative,6676,0,1,0,0,The South and North districts.,The Northeast and Southwest districts.,The North district.,ms-l,ms-h,mo-l,0,0,1,1,1,0,1,0,0,0,1,0,0,0
A2YVC1U50H2B4R,English,29,female,control,control_how,9439,0,0,1,0,NA,NA,NA,NA,NA,NA,NA,0,1,1,1,0,1,0,0,0,1,0,0,0
A2YVC1U50H2B4R,English,29,female,exit_quest,NA,19463,At the cafe,No.. it seemed fairly common sense,,NA,NA,NA,NA,NA,NA,NA,NA,NA,NA,NA,NA,NA,NA,NA,NA,NA,NA,NA,NA,NA
A2QWERWB75X8YU,english,28,female,consent,NA,17736,NA,NA,NA,NA,NA,NA,NA,NA,NA,NA,NA,NA,NA,NA,NA,NA,NA,NA,NA,NA,NA,NA,NA,NA
A2QWERWB75X8YU,english,28,female,train,train_f,26617,0,0,0,1,NA,NA,NA,NA,NA,NA,NA,NA,NA,NA,NA,NA,NA,NA,NA,NA,NA,NA,NA,NA
A2QWERWB75X8YU,english,28,female,train,train_m,17643,0,0,1,0,NA,NA,NA,NA,NA,NA,NA,NA,NA,NA,NA,NA,NA,NA,NA,NA,NA,NA,NA,NA
A2QWERWB75X8YU,english,28,female,high,high_terrorism,24581,0,1,0,0,Store F.,Stores E and B.,Stores A and F.,mo-l,ms-h,ms-l,0,0,1,1,1,0,1,0,0,0,1,0,0,0
A2QWERWB75X8YU,english,28,female,low,low_pic,12479,1,0,0,0,Locations A and D.,Locations D and F.,Location F.,ms-h,ms-l,mo-l,0,0,1,1,1,0,1,0,0,0,1,0,0,0
A2QWERWB75X8YU,english,28,female,high,high_operative,18754,1,0,0,0,"The Northeast, Southwest, South, Southeast and North districts.",The Northeast district.,The South and North districts.,exh,mo-h,ms-l,1,1,0,0,1,0,1,1,0,0,0,0,0,0
A2QWERWB75X8YU,english,28,female,control,control_what,15977,1,1,0,0,NA,NA,NA,NA,NA,NA,NA,1,0,0,1,0,1,1,0,0,0,0,0,0
A2QWERWB75X8YU,english,28,female,low,low_yoga,8425,0,0,1,0,Studio B.,Studio A.,Studio F.,mo-l,f,mo-h,0,1,1,0,0,1,1,0,1,0,0,0,0,0
A2QWERWB75X8YU,english,28,female,high,high_inspector,16908,0,1,1,0,Restaurant E.,Restaurant A.,Restaurants A and B.,mo-l,mo-h,ms-h,0,1,1,1,0,0,1,0,1,0,1,0,0,0
A2QWERWB75X8YU,english,28,female,control,control_when,19943,0,1,0,0,NA,NA,NA,NA,NA,NA,NA,1,1,1,0,0,1,0,1,0,1,0,0,0
A2QWERWB75X8YU,english,28,female,low,low_brother,8655,0,1,0,0,"Stalls C, D, A, F and B.",Stalls C and D.,Stalls A and B.,exh,ms-h,ms-l,1,0,0,1,1,0,1,0,0,0,1,0,0,0
A2QWERWB75X8YU,english,28,female,high,high_firefighter,8221,0,1,0,0,The sixth floor.,The fifth and second floors.,The first floor.,mo-l,ms-h,f,0,0,1,1,0,1,1,0,0,0,1,0,0,0
A2QWERWB75X8YU,english,28,female,low,low_la,6832,0,1,0,0,Diners A and E.,Diner C.,Diner E.,ms-l,mo-h,mo-l,0,1,1,0,1,0,1,0,1,0,0,0,0,0
A2QWERWB75X8YU,english,28,female,control,control_how,17175,0,0,1,0,NA,NA,NA,NA,NA,NA,NA,1,1,0,1,0,1,0,1,0,0,0,0,0
A2QWERWB75X8YU,english,28,female,high,high_fbi,16800,1,0,0,0,Places B and E.,Place E.,Place D.,ms-l,mo-l,f,0,0,1,0,1,1,1,0,0,0,0,1,0,0
A2QWERWB75X8YU,english,28,female,low,low_coffee,5944,0,1,0,0,Cafe D.,Cafes E and B.,Cafe A.,mo-l,ms-h,f,0,0,1,1,0,1,1,0,0,0,1,0,0,0
A2QWERWB75X8YU,english,28,female,control,control_why,12048,1,0,0,0,NA,NA,NA,NA,NA,NA,NA,0,1,1,0,1,1,0,0,0,1,0,0,0
A2QWERWB75X8YU,english,28,female,exit_quest,NA,21472,Downtown,Sort of%2C I got confused,No,NA,NA,NA,NA,NA,NA,NA,NA,NA,NA,NA,NA,NA,NA,NA,NA,NA,NA,NA,NA,NA
ACVJ6IUO9QM4R,English,35,female,consent,NA,14965,NA,NA,NA,NA,NA,NA,NA,NA,NA,NA,NA,NA,NA,NA,NA,NA,NA,NA,NA,NA,NA,NA,NA,NA
ACVJ6IUO9QM4R,English,35,female,train,train_f,13809,0,1,0,0,NA,NA,NA,NA,NA,NA,NA,NA,NA,NA,NA,NA,NA,NA,NA,NA,NA,NA,NA,NA
ACVJ6IUO9QM4R,English,35,female,train,train_m,4310,0,0,1,0,NA,NA,NA,NA,NA,NA,NA,NA,NA,NA,NA,NA,NA,NA,NA,NA,NA,NA,NA,NA
ACVJ6IUO9QM4R,English,35,female,low,low_coffee,2635,1,0,0,0,Cafe E.,Cafes E and B.,Cafe D.,mo-h,ms-h,mo-l,0,1,1,1,0,0,1,0,1,0,0,0,0,0
ACVJ6IUO9QM4R,English,35,female,high,high_operative,1679,0,1,0,0,The South and North districts.,The North district.,"The Northeast, Southwest, South, Southeast and North districts.",ms-l,mo-l,exh,1,0,1,0,1,0,1,0,0,1,0,0,0,0
ACVJ6IUO9QM4R,English,35,female,low,low_la,3091,1,0,0,0,Diners A and E.,Diner E.,Diner C.,ms-l,mo-l,mo-h,0,1,1,0,1,0,1,0,0,0,0,1,0,0
ACVJ6IUO9QM4R,English,35,female,control,control_what,2074,0,0,1,0,NA,NA,NA,NA,NA,NA,NA,1,1,0,1,0,1,0,0,0,0,1,0,0
ACVJ6IUO9QM4R,English,35,female,high,high_firefighter,3914,0,1,1,0,The fifth floor.,The fourth and sixth floors.,"The fifth, second, fourth, third and sixth floors.",mo-h,ms-l,exh,1,1,0,0,1,0,1,1,0,0,0,1,0,0
ACVJ6IUO9QM4R,English,35,female,low,low_yoga,1260,0,1,0,0,Studio A.,Studios F and E.,Studio B.,f,ms-h,mo-l,0,0,1,1,0,1,1,0,0,0,1,0,0,0
ACVJ6IUO9QM4R,English,35,female,control,control_why,1190,0,0,1,0,NA,NA,NA,NA,NA,NA,NA,0,1,1,0,1,1,0,0,0,1,0,0,0
ACVJ6IUO9QM4R,English,35,female,high,high_inspector,1874,0,0,1,0,"Restaurants A, B, C, D, and E.",Restaurants A and B.,Restaurants C and E.,exh,ms-h,ms-l,1,0,0,1,1,0,1,0,0,0,0,1,0,0
ACVJ6IUO9QM4R,English,35,female,low,low_brother,1029,0,1,0,0,Stalls C and D.,Stall B.,"Stalls C, D, A, F and B.",ms-h,mo-l,exh,1,0,1,1,0,0,1,0,0,1,0,0,0,0
ACVJ6IUO9QM4R,English,35,female,high,high_terrorism,1157,1,0,0,0,Store F.,Store C.,Stores A and F.,mo-l,f,ms-l,0,0,1,0,1,1,1,0,0,1,0,0,0,0
ACVJ6IUO9QM4R,English,35,female,control,control_when,1572,0,1,0,0,NA,NA,NA,NA,NA,NA,NA,0,1,0,1,1,1,0,0,1,0,0,0,0
ACVJ6IUO9QM4R,English,35,female,low,low_pic,2148,1,0,0,0,Location A.,Locations D and F.,Location F.,mo-h,ms-l,mo-l,0,1,1,0,1,0,1,0,1,0,0,0,0,0
ACVJ6IUO9QM4R,English,35,female,high,high_fbi,2432,0,1,0,0,Place E.,Place F.,Places F and A.,mo-l,mo-h,ms-h,0,1,1,1,0,0,1,0,1,0,0,0,0,0
ACVJ6IUO9QM4R,English,35,female,control,control_how,3664,0,1,0,0,NA,NA,NA,NA,NA,NA,NA,1,1,1,0,0,1,0,1,0,0,0,0,0
ACVJ6IUO9QM4R,English,35,female,exit_quest,NA,30197,in the cubboard ,yes it ws difficult because some of the paragraphs were long and didnt make sense the way they were worded ,n,NA,NA,NA,NA,NA,NA,NA,NA,NA,NA,NA,NA,NA,NA,NA,NA,NA,NA,NA,NA,NA
A1DIW2K1J89CMO,English,22,female,consent,NA,15875,NA,NA,NA,NA,NA,NA,NA,NA,NA,NA,NA,NA,NA,NA,NA,NA,NA,NA,NA,NA,NA,NA,NA,NA
A1DIW2K1J89CMO,English,22,female,train,train_f,27634,0,0,0,1,NA,NA,NA,NA,NA,NA,NA,NA,NA,NA,NA,NA,NA,NA,NA,NA,NA,NA,NA,NA
A1DIW2K1J89CMO,English,22,female,train,train_m,28738,0,1,1,0,NA,NA,NA,NA,NA,NA,NA,NA,NA,NA,NA,NA,NA,NA,NA,NA,NA,NA,NA,NA
A1DIW2K1J89CMO,English,22,female,high,high_fbi,25597,0,0,1,0,Place E.,Places B and E.,Places F and A.,mo-l,ms-l,ms-h,0,0,1,1,1,0,1,0,0,0,1,0,0,0
A1DIW2K1J89CMO,English,22,female,low,low_brother,50773,0,0,1,0,Stall E.,Stalls A and B.,Stall C.,f,ms-l,mo-h,0,1,0,0,1,1,1,0,1,0,0,0,0,0
A1DIW2K1J89CMO,English,22,female,high,high_terrorism,44535,1,0,0,0,Stores E and B.,Store F.,Stores A and F.,ms-h,mo-l,ms-l,0,0,1,1,1,0,1,0,0,0,1,0,0,0
A1DIW2K1J89CMO,English,22,female,control,control_why,25710,1,1,0,0,NA,NA,NA,NA,NA,NA,NA,0,1,1,1,0,1,0,0,0,1,0,0,0
A1DIW2K1J89CMO,English,22,female,low,low_pic,19286,1,0,1,0,Locations A and D.,Location B.,Location A.,ms-h,f,mo-h,0,1,0,1,0,1,1,0,1,0,1,0,0,0
A1DIW2K1J89CMO,English,22,female,high,high_operative,17381,1,0,1,0,The Northeast district.,The South and North districts.,The Northeast and Southwest districts.,mo-h,ms-l,ms-h,0,1,0,1,1,0,1,0,1,0,1,0,0,0
A1DIW2K1J89CMO,English,22,female,control,control_what,10573,1,0,0,0,NA,NA,NA,NA,NA,NA,NA,1,0,1,1,0,1,0,1,0,1,0,0,0
A1DIW2K1J89CMO,English,22,female,low,low_coffee,10174,0,1,0,0,Cafe D.,Cafes E and B.,Cafes F and D.,mo-l,ms-h,ms-l,0,0,1,1,1,0,1,0,0,0,1,0,0,0
A1DIW2K1J89CMO,English,22,female,high,high_inspector,27894,0,0,0,1,Restaurants C and E.,Restaurant E.,Restaurant F.,ms-l,mo-l,f,0,0,1,0,1,1,1,0,0,0,0,0,0,1
A1DIW2K1J89CMO,English,22,female,low,low_la,18678,1,0,0,0,Diners C and F.,Diners A and E.,"Diners C, F, A, D, and E.",ms-h,ms-l,exh,1,0,0,1,1,0,1,0,0,0,1,0,0,0
A1DIW2K1J89CMO,English,22,female,control,control_when,25182,0,0,0,1,NA,NA,NA,NA,NA,NA,NA,0,0,1,1,0,1,0,0,0,1,0,0,0
A1DIW2K1J89CMO,English,22,female,high,high_firefighter,17101,0,1,0,0,The sixth floor.,"The fifth, second, fourth, third and sixth floors.",The fifth and second floors.,mo-l,exh,ms-h,1,0,1,1,0,0,1,1,0,0,0,0,0,0
A1DIW2K1J89CMO,English,22,female,low,low_yoga,10327,1,0,1,0,Studio F.,Studios C and B.,Studios F and E.,mo-h,ms-l,ms-h,0,1,0,1,1,0,1,0,1,0,1,0,0,0
A1DIW2K1J89CMO,English,22,female,control,control_how,26135,0,1,0,0,NA,NA,NA,NA,NA,NA,NA,1,0,1,1,0,1,0,1,0,1,0,0,0
A1DIW2K1J89CMO,English,22,female,exit_quest,NA,32646,There should be a coffee shop nearby.,No%2C it is simply reading carefully.,,NA,NA,NA,NA,NA,NA,NA,NA,NA,NA,NA,NA,NA,NA,NA,NA,NA,NA,NA,NA,NA
A11FRLH5KWRLBV,English,34,male,consent,NA,18893,NA,NA,NA,NA,NA,NA,NA,NA,NA,NA,NA,NA,NA,NA,NA,NA,NA,NA,NA,NA,NA,NA,NA,NA
A11FRLH5KWRLBV,English,34,male,train,train_f,96254,0,0,0,1,NA,NA,NA,NA,NA,NA,NA,NA,NA,NA,NA,NA,NA,NA,NA,NA,NA,NA,NA,NA
A11FRLH5KWRLBV,English,34,male,train,train_m,44724,0,1,0,0,NA,NA,NA,NA,NA,NA,NA,NA,NA,NA,NA,NA,NA,NA,NA,NA,NA,NA,NA,NA
A11FRLH5KWRLBV,English,34,male,high,high_fbi,18712,0,1,0,0,Place E.,Place F.,Places B and E.,mo-l,mo-h,ms-l,0,1,1,0,1,0,1,0,1,0,0,0,0,0
A11FRLH5KWRLBV,English,34,male,low,low_pic,1903,0,0,1,0,Locations D and F.,Location A.,Location B.,ms-l,mo-h,f,0,1,0,0,1,1,1,0,0,0,0,0,1,0
A11FRLH5KWRLBV,English,34,male,control,control_what,1918,0,0,1,0,NA,NA,NA,NA,NA,NA,NA,1,0,0,1,1,1,0,0,0,0,0,1,0
A11FRLH5KWRLBV,English,34,male,high,high_terrorism,2376,0,1,0,0,Store C.,Stores E and B.,Store E.,f,ms-h,mo-h,0,1,0,1,0,1,1,0,0,0,1,0,0,0
A11FRLH5KWRLBV,English,34,male,low,low_yoga,1464,0,0,1,0,Studios F and E.,Studio F.,"Studios F, E, D, C and B.",ms-h,mo-h,exh,1,1,0,1,0,0,1,1,0,0,0,0,0,0
A11FRLH5KWRLBV,English,34,male,control,control_why,2443,0,0,1,0,NA,NA,NA,NA,NA,NA,NA,1,0,1,0,0,1,1,0,0,0,0,0,0
A11FRLH5KWRLBV,English,34,male,high,high_inspector,2049,1,0,0,0,Restaurant A.,Restaurants C and E.,Restaurants A and B.,mo-h,ms-l,ms-h,0,1,0,1,1,0,1,0,1,0,0,0,0,0
A11FRLH5KWRLBV,English,34,male,low,low_brother,1675,0,0,1,0,Stall E.,Stalls C and D.,Stalls A and B.,f,ms-h,ms-l,0,0,0,1,1,1,1,0,0,0,0,1,0,0
A11FRLH5KWRLBV,English,34,male,high,high_operative,5269,0,1,0,0,The South and North districts.,The North district.,The Northeast and Southwest districts.,ms-l,mo-l,ms-h,0,0,1,1,1,0,1,0,0,1,0,0,0,0
A11FRLH5KWRLBV,English,34,male,control,control_when,2950,1,0,0,0,NA,NA,NA,NA,NA,NA,NA,0,1,1,1,0,1,0,0,1,0,0,0,0
A11FRLH5KWRLBV,English,34,male,low,low_coffee,1915,0,1,0,0,Cafes E and B.,Cafe E.,Cafe D.,ms-h,mo-h,mo-l,0,1,1,1,0,0,1,0,1,0,0,0,0,0
A11FRLH5KWRLBV,English,34,male,high,high_firefighter,2908,0,0,1,0,The fourth and sixth floors.,The fifth floor.,The sixth floor.,ms-l,mo-h,mo-l,0,1,1,0,1,0,1,0,0,1,0,0,0,0
A11FRLH5KWRLBV,English,34,male,low,low_la,1741,1,0,0,0,Diner C.,Diner B.,Diners C and F.,mo-h,f,ms-h,0,1,0,1,0,1,1,0,1,0,0,0,0,0
A11FRLH5KWRLBV,English,34,male,control,control_how,1659,0,1,0,0,NA,NA,NA,NA,NA,NA,NA,1,0,1,0,1,1,0,1,0,0,0,0,0
A11FRLH5KWRLBV,English,34,male,exit_quest,NA,53182,he can find it at the store,yes i found this task somewhat hard because there seemed to be multiple answers to me,everything worked fine.,NA,NA,NA,NA,NA,NA,NA,NA,NA,NA,NA,NA,NA,NA,NA,NA,NA,NA,NA,NA,NA
A2YGAEODJ5SSF6,English ,41,male,consent,NA,15988,NA,NA,NA,NA,NA,NA,NA,NA,NA,NA,NA,NA,NA,NA,NA,NA,NA,NA,NA,NA,NA,NA,NA,NA
A2YGAEODJ5SSF6,English ,41,male,train,train_m,37863,0,0,1,0,NA,NA,NA,NA,NA,NA,NA,NA,NA,NA,NA,NA,NA,NA,NA,NA,NA,NA,NA,NA
A2YGAEODJ5SSF6,English ,41,male,train,train_f,36619,0,0,0,1,NA,NA,NA,NA,NA,NA,NA,NA,NA,NA,NA,NA,NA,NA,NA,NA,NA,NA,NA,NA
A2YGAEODJ5SSF6,English ,41,male,low,low_brother,33714,0,1,0,0,"Stalls C, D, A, F and B.",Stalls C and D.,Stalls A and B.,exh,ms-h,ms-l,1,0,0,1,1,0,1,0,0,0,1,0,0,0
A2YGAEODJ5SSF6,English ,41,male,high,high_fbi,22375,0,1,0,0,Place D.,Place F.,Place E.,f,mo-h,mo-l,0,1,1,0,0,1,1,0,1,0,0,0,0,0
A2YGAEODJ5SSF6,English ,41,male,low,low_la,13581,1,1,0,0,Diner C.,Diners C and F.,Diner B.,mo-h,ms-h,f,0,1,0,1,0,1,1,0,1,0,1,0,0,0
A2YGAEODJ5SSF6,English ,41,male,control,control_what,25469,1,0,0,0,NA,NA,NA,NA,NA,NA,NA,1,0,1,0,1,1,0,1,0,1,0,0,0
A2YGAEODJ5SSF6,English ,41,male,high,high_inspector,26442,1,1,0,0,Restaurants C and E.,Restaurants A and B.,Restaurant F.,ms-l,ms-h,f,0,0,0,1,1,1,1,0,0,0,1,1,0,0
A2YGAEODJ5SSF6,English ,41,male,low,low_yoga,33390,0,1,0,0,Studio A.,Studios F and E.,Studio B.,f,ms-h,mo-l,0,0,1,1,0,1,1,0,0,0,1,0,0,0
A2YGAEODJ5SSF6,English ,41,male,control,control_why,21927,1,1,0,0,NA,NA,NA,NA,NA,NA,NA,0,1,1,0,1,1,0,0,0,1,0,0,0
A2YGAEODJ5SSF6,English ,41,male,high,high_operative,35657,0,1,0,0,The North district.,The Northeast and Southwest districts.,The Northeast district.,mo-l,ms-h,mo-h,0,1,1,1,0,0,1,0,0,0,1,0,0,0
A2YGAEODJ5SSF6,English ,41,male,low,low_coffee,41424,0,1,0,0,Cafe D.,Cafe E.,Cafes F and D.,mo-l,mo-h,ms-l,0,1,1,0,1,0,1,0,1,0,0,0,0,0
A2YGAEODJ5SSF6,English ,41,male,high,high_firefighter,27893,1,1,1,0,The sixth floor.,The fifth floor.,"The fifth, second, fourth, third and sixth floors.",mo-l,mo-h,exh,1,1,1,0,0,0,1,1,1,1,0,0,0,0
A2YGAEODJ5SSF6,English ,41,male,control,control_when,18427,0,0,0,1,NA,NA,NA,NA,NA,NA,NA,1,1,0,0,0,1,1,1,1,0,0,0,0
A2YGAEODJ5SSF6,English ,41,male,low,low_pic,19010,0,0,0,1,Location F.,Locations D and F.,Location B.,mo-l,ms-l,f,0,0,1,0,1,1,1,0,0,0,0,0,0,1
A2YGAEODJ5SSF6,English ,41,male,high,high_terrorism,14694,1,0,0,0,Store E.,Stores E and B.,Stores A and F.,mo-h,ms-h,ms-l,0,1,0,1,1,0,1,0,1,0,0,0,0,0
A2YGAEODJ5SSF6,English ,41,male,control,control_how,35988,0,1,0,0,NA,NA,NA,NA,NA,NA,NA,1,0,1,1,0,1,0,1,0,0,0,0,0
A2YGAEODJ5SSF6,English ,41,male,exit_quest,NA,27491,At the store,Not really because the answers seemed fairly straight forward ,no,NA,NA,NA,NA,NA,NA,NA,NA,NA,NA,NA,NA,NA,NA,NA,NA,NA,NA,NA,NA,NA
A2DVJ6OMVVYTC7,English,29,male,consent,NA,40006,NA,NA,NA,NA,NA,NA,NA,NA,NA,NA,NA,NA,NA,NA,NA,NA,NA,NA,NA,NA,NA,NA,NA,NA
A2DVJ6OMVVYTC7,English,29,male,train,train_m,32965,0,1,1,0,NA,NA,NA,NA,NA,NA,NA,NA,NA,NA,NA,NA,NA,NA,NA,NA,NA,NA,NA,NA
A2DVJ6OMVVYTC7,English,29,male,train,train_f,32151,0,0,0,1,NA,NA,NA,NA,NA,NA,NA,NA,NA,NA,NA,NA,NA,NA,NA,NA,NA,NA,NA,NA
A2DVJ6OMVVYTC7,English,29,male,low,low_pic,39646,0,0,1,0,"Locations A, D, E, and F.",Location F.,Locations A and D.,exh,mo-l,ms-h,1,0,1,1,0,0,1,0,0,0,1,0,0,0
A2DVJ6OMVVYTC7,English,29,male,high,high_fbi,21885,0,0,1,0,Place F.,Place E.,"Places F, A, B, C and E.",mo-h,mo-l,exh,1,1,1,0,0,0,1,1,0,0,0,0,0,0
A2DVJ6OMVVYTC7,English,29,male,low,low_la,28142,0,1,0,0,Diner E.,Diner C.,Diners A and E.,mo-l,mo-h,ms-l,0,1,1,0,1,0,1,0,1,0,0,0,0,0
A2DVJ6OMVVYTC7,English,29,male,control,control_what,22295,1,0,0,0,NA,NA,NA,NA,NA,NA,NA,1,1,0,1,0,1,0,1,0,0,0,0,0
A2DVJ6OMVVYTC7,English,29,male,high,high_inspector,36165,0,0,1,0,Restaurant F.,Restaurants C and E.,Restaurants A and B.,f,ms-l,ms-h,0,0,0,1,1,1,1,0,0,0,1,0,0,0
A2DVJ6OMVVYTC7,English,29,male,low,low_brother,31765,1,0,0,0,Stall C.,Stalls A and B.,Stall B.,mo-h,ms-l,mo-l,0,1,1,0,1,0,1,0,1,0,0,0,0,0
A2DVJ6OMVVYTC7,English,29,male,control,control_how,18820,0,0,1,0,NA,NA,NA,NA,NA,NA,NA,1,1,0,1,0,1,0,1,0,0,0,0,0
A2DVJ6OMVVYTC7,English,29,male,high,high_terrorism,15335,0,1,0,0,Store F.,Stores E and B.,Stores A and F.,mo-l,ms-h,ms-l,0,0,1,1,1,0,1,0,0,0,1,0,0,0
A2DVJ6OMVVYTC7,English,29,male,low,low_yoga,9262,1,0,0,0,Studios F and E.,"Studios F, E, D, C and B.",Studio F.,ms-h,exh,mo-h,1,1,0,1,0,0,1,0,0,0,1,0,0,0
A2DVJ6OMVVYTC7,English,29,male,high,high_operative,12110,0,1,0,0,The Northeast district.,The Northeast and Southwest districts.,The North district.,mo-h,ms-h,mo-l,0,1,1,1,0,0,1,0,0,0,1,0,0,0
A2DVJ6OMVVYTC7,English,29,male,control,control_why,19703,1,0,0,0,NA,NA,NA,NA,NA,NA,NA,1,1,1,0,0,1,0,0,0,1,0,0,0
A2DVJ6OMVVYTC7,English,29,male,low,low_coffee,6054,1,0,0,0,Cafes E and B.,Cafe D.,"Cafes E, B, F, C and D.",ms-h,mo-l,exh,1,0,1,1,0,0,1,0,0,0,1,0,0,0
A2DVJ6OMVVYTC7,English,29,male,high,high_firefighter,10676,1,0,0,0,"The fifth, second, fourth, third and sixth floors.",The fourth and sixth floors.,The first floor.,exh,ms-l,f,1,0,0,0,1,1,1,1,0,0,0,0,0,0
A2DVJ6OMVVYTC7,English,29,male,control,control_when,3118,0,1,0,0,NA,NA,NA,NA,NA,NA,NA,0,0,0,1,1,1,1,0,0,0,0,0,0
A2DVJ6OMVVYTC7,English,29,male,exit_quest,NA,81718,John can find coffee..%2C,No%2C it was really interesting how certain ways sentences are set up can have you think it's the opposite of what you think. ,No.,NA,NA,NA,NA,NA,NA,NA,NA,NA,NA,NA,NA,NA,NA,NA,NA,NA,NA,NA,NA,NA
AA8MK8AWWWL62,English,32,female,consent,NA,46333,NA,NA,NA,NA,NA,NA,NA,NA,NA,NA,NA,NA,NA,NA,NA,NA,NA,NA,NA,NA,NA,NA,NA,NA
AA8MK8AWWWL62,English,32,female,train,train_m,51082,0,0,1,0,NA,NA,NA,NA,NA,NA,NA,NA,NA,NA,NA,NA,NA,NA,NA,NA,NA,NA,NA,NA
AA8MK8AWWWL62,English,32,female,train,train_f,36786,0,0,0,1,NA,NA,NA,NA,NA,NA,NA,NA,NA,NA,NA,NA,NA,NA,NA,NA,NA,NA,NA,NA
AA8MK8AWWWL62,English,32,female,high,high_operative,65343,1,1,1,0,The North district.,The Northeast and Southwest districts.,The Northeast district.,mo-l,ms-h,mo-h,0,1,1,1,0,0,1,0,1,1,1,0,0,0
AA8MK8AWWWL62,English,32,female,low,low_pic,44644,0,0,1,0,Location B.,Location F.,Location A.,f,mo-l,mo-h,0,1,1,0,0,1,1,0,1,0,0,0,0,0
AA8MK8AWWWL62,English,32,female,high,high_firefighter,29903,1,1,1,0,The fifth and second floors.,The fifth floor.,The sixth floor.,ms-h,mo-h,mo-l,0,1,1,1,0,0,1,0,1,1,1,0,0,0
AA8MK8AWWWL62,English,32,female,control,control_when,33152,0,1,0,0,NA,NA,NA,NA,NA,NA,NA,1,1,1,0,0,1,0,1,1,1,0,0,0
AA8MK8AWWWL62,English,32,female,low,low_coffee,18265,1,1,1,0,Cafes E and B.,"Cafes E, B, F, C and D.",Cafes F and D.,ms-h,exh,ms-l,1,0,0,1,1,0,1,1,0,0,1,1,0,0
AA8MK8AWWWL62,English,32,female,high,high_inspector,19114,1,1,1,0,Restaurants A and B.,Restaurant A.,Restaurants C and E.,ms-h,mo-h,ms-l,0,1,0,1,1,0,1,0,1,0,1,1,0,0
AA8MK8AWWWL62,English,32,female,control,control_what,22933,1,1,0,0,NA,NA,NA,NA,NA,NA,NA,1,0,1,1,0,1,0,1,0,1,1,0,0
AA8MK8AWWWL62,English,32,female,low,low_la,33853,0,0,1,0,Diner E.,Diners A and E.,"Diners C, F, A, D, and E.",mo-l,ms-l,exh,1,0,1,0,1,0,1,1,0,0,0,0,0,0
AA8MK8AWWWL62,English,32,female,high,high_terrorism,25953,1,0,1,0,Store E.,Store F.,"Stores E, B, A, D, and F.",mo-h,mo-l,exh,1,1,1,0,0,0,1,1,1,0,0,0,0,0
AA8MK8AWWWL62,English,32,female,low,low_yoga,21506,0,1,1,0,Studios C and B.,Studios F and E.,Studio F.,ms-l,ms-h,mo-h,0,1,0,1,1,0,1,0,1,0,1,0,0,0
AA8MK8AWWWL62,English,32,female,control,control_how,34285,0,1,0,0,NA,NA,NA,NA,NA,NA,NA,1,0,1,1,0,1,0,1,0,1,0,0,0
AA8MK8AWWWL62,English,32,female,high,high_fbi,36435,0,1,0,1,Places F and A.,Places B and E.,Place D.,ms-h,ms-l,f,0,0,0,1,1,1,1,0,0,0,0,1,0,1
AA8MK8AWWWL62,English,32,female,low,low_brother,18147,0,0,1,0,Stalls A and B.,Stall B.,Stalls C and D.,ms-l,mo-l,ms-h,0,0,1,1,1,0,1,0,0,0,1,0,0,0
AA8MK8AWWWL62,English,32,female,control,control_why,40371,1,1,0,0,NA,NA,NA,NA,NA,NA,NA,0,1,1,1,0,1,0,0,0,1,0,0,0
AA8MK8AWWWL62,English,32,female,exit_quest,NA,177850,He can find coffee at the cafe in his hotel or in the kitchenette in his room.,"I wouldn't call it difficult%2C but it was interesting to see how my idea of ""knowing"" could be different in different scenarios.",There was a typo on the the scenario regarding bankers/banks.,NA,NA,NA,NA,NA,NA,NA,NA,NA,NA,NA,NA,NA,NA,NA,NA,NA,NA,NA,NA,NA
A10LGIY5HFYMZM,ENGLISH,58,male,consent,NA,36389,NA,NA,NA,NA,NA,NA,NA,NA,NA,NA,NA,NA,NA,NA,NA,NA,NA,NA,NA,NA,NA,NA,NA,NA
A10LGIY5HFYMZM,ENGLISH,58,male,train,train_m,51839,0,0,1,0,NA,NA,NA,NA,NA,NA,NA,NA,NA,NA,NA,NA,NA,NA,NA,NA,NA,NA,NA,NA
A10LGIY5HFYMZM,ENGLISH,58,male,train,train_f,96825,0,0,0,1,NA,NA,NA,NA,NA,NA,NA,NA,NA,NA,NA,NA,NA,NA,NA,NA,NA,NA,NA,NA
A10LGIY5HFYMZM,ENGLISH,58,male,high,high_operative,30502,1,0,0,0,The North district.,The Northeast and Southwest districts.,The South and North districts.,mo-l,ms-h,ms-l,0,0,1,1,1,0,1,0,0,1,0,0,0,0
A10LGIY5HFYMZM,ENGLISH,58,male,low,low_yoga,84069,1,0,0,0,Studio F.,Studio B.,Studios C and B.,mo-h,mo-l,ms-l,0,1,1,0,1,0,1,0,1,0,0,0,0,0
A10LGIY5HFYMZM,ENGLISH,58,male,high,high_terrorism,25253,1,0,0,0,Store E.,Stores E and B.,Stores A and F.,mo-h,ms-h,ms-l,0,1,0,1,1,0,1,0,1,0,0,0,0,0
A10LGIY5HFYMZM,ENGLISH,58,male,control,control_why,20523,1,0,0,0,NA,NA,NA,NA,NA,NA,NA,1,0,1,1,0,1,0,1,0,0,0,0,0
A10LGIY5HFYMZM,ENGLISH,58,male,low,low_coffee,56949,0,1,0,0,Cafe D.,Cafe E.,Cafes F and D.,mo-l,mo-h,ms-l,0,1,1,0,1,0,1,0,1,0,0,0,0,0
A10LGIY5HFYMZM,ENGLISH,58,male,high,high_firefighter,24371,1,0,0,0,The fifth floor.,The fourth and sixth floors.,The sixth floor.,mo-h,ms-l,mo-l,0,1,1,0,1,0,1,0,1,0,0,0,0,0
A10LGIY5HFYMZM,ENGLISH,58,male,control,control_how,36624,0,1,0,0,NA,NA,NA,NA,NA,NA,NA,1,1,0,1,0,1,0,1,0,0,0,0,0
A10LGIY5HFYMZM,ENGLISH,58,male,low,low_pic,52118,0,1,0,0,Locations D and F.,Location A.,"Locations A, D, E, and F.",ms-l,mo-h,exh,1,1,0,0,1,0,1,0,1,0,0,0,0,0
A10LGIY5HFYMZM,ENGLISH,58,male,high,high_inspector,38709,0,0,1,0,Restaurants C and E.,Restaurant E.,Restaurant A.,ms-l,mo-l,mo-h,0,1,1,0,1,0,1,0,1,0,0,0,0,0
A10LGIY5HFYMZM,ENGLISH,58,male,low,low_la,24685,0,0,1,0,Diners A and E.,Diner E.,"Diners C, F, A, D, and E.",ms-l,mo-l,exh,1,0,1,0,1,0,1,1,0,0,0,0,0,0
A10LGIY5HFYMZM,ENGLISH,58,male,control,control_what,46059,1,0,0,0,NA,NA,NA,NA,NA,NA,NA,0,1,0,1,0,1,1,0,0,0,0,0,0
A10LGIY5HFYMZM,ENGLISH,58,male,high,high_fbi,12400,1,0,0,0,"Places F, A, B, C and E.",Places B and E.,Place E.,exh,ms-l,mo-l,1,0,1,0,1,0,1,1,0,0,0,0,0,0
A10LGIY5HFYMZM,ENGLISH,58,male,low,low_brother,11859,0,1,0,0,Stalls A and B.,Stall C.,Stall B.,ms-l,mo-h,mo-l,0,1,1,0,1,0,1,0,1,0,0,0,0,0
A10LGIY5HFYMZM,ENGLISH,58,male,control,control_when,17888,0,1,0,0,NA,NA,NA,NA,NA,NA,NA,1,1,0,1,0,1,0,1,0,0,0,0,0
A10LGIY5HFYMZM,ENGLISH,58,male,exit_quest,NA,123449,JOHN CAN FIND COFFEE AT THE COFFEE SHOP,NO%2C IT WAS EASY DUE TO THE WAY IT WAS WRITTEN AND LAYED OUT,NOTHING,NA,NA,NA,NA,NA,NA,NA,NA,NA,NA,NA,NA,NA,NA,NA,NA,NA,NA,NA,NA,NA
A2LCOTUKCDULAA,english,52,female,consent,NA,29980,NA,NA,NA,NA,NA,NA,NA,NA,NA,NA,NA,NA,NA,NA,NA,NA,NA,NA,NA,NA,NA,NA,NA,NA
A2LCOTUKCDULAA,english,52,female,train,train_f,64261,0,0,0,1,NA,NA,NA,NA,NA,NA,NA,NA,NA,NA,NA,NA,NA,NA,NA,NA,NA,NA,NA,NA
A2LCOTUKCDULAA,english,52,female,train,train_m,55526,0,0,1,0,NA,NA,NA,NA,NA,NA,NA,NA,NA,NA,NA,NA,NA,NA,NA,NA,NA,NA,NA,NA
A2LCOTUKCDULAA,english,52,female,high,high_firefighter,103548,0,0,1,0,The first floor.,The fourth and sixth floors.,The fifth and second floors.,f,ms-l,ms-h,0,0,0,1,1,1,1,0,0,0,1,0,0,0
A2LCOTUKCDULAA,english,52,female,low,low_pic,61882,1,0,0,0,Locations A and D.,Location B.,Location F.,ms-h,f,mo-l,0,0,1,1,0,1,1,0,0,0,1,0,0,0
A2LCOTUKCDULAA,english,52,female,high,high_fbi,40613,0,0,0,1,Place D.,Place E.,Places B and E.,f,mo-l,ms-l,0,0,1,0,1,1,1,0,0,0,0,0,0,1
A2LCOTUKCDULAA,english,52,female,control,control_when,19032,0,0,1,0,NA,NA,NA,NA,NA,NA,NA,0,1,0,1,1,1,0,0,0,0,0,0,1
A2LCOTUKCDULAA,english,52,female,low,low_brother,29505,1,0,0,0,Stall B.,Stalls A and B.,"Stalls C, D, A, F and B.",mo-l,ms-l,exh,1,0,1,0,1,0,1,0,0,1,0,0,0,0
A2LCOTUKCDULAA,english,52,female,high,high_inspector,48502,1,0,0,0,Restaurants C and E.,Restaurant E.,Restaurant A.,ms-l,mo-l,mo-h,0,1,1,0,1,0,1,0,0,0,0,1,0,0
A2LCOTUKCDULAA,english,52,female,control,control_what,72629,1,0,0,0,NA,NA,NA,NA,NA,NA,NA,1,1,0,1,0,1,0,0,0,0,1,0,0
A2LCOTUKCDULAA,english,52,female,low,low_yoga,15883,1,0,0,0,Studio A.,Studio B.,Studios F and E.,f,mo-l,ms-h,0,0,1,1,0,1,1,0,0,0,0,0,1,0
A2LCOTUKCDULAA,english,52,female,high,high_terrorism,18084,1,0,0,0,Store F.,Stores E and B.,Store E.,mo-l,ms-h,mo-h,0,1,1,1,0,0,1,0,0,1,0,0,0,0
A2LCOTUKCDULAA,english,52,female,low,low_coffee,25789,1,0,0,0,Cafe E.,Cafes E and B.,Cafes F and D.,mo-h,ms-h,ms-l,0,1,0,1,1,0,1,0,1,0,0,0,0,0
A2LCOTUKCDULAA,english,52,female,control,control_how,35320,0,0,0,1,NA,NA,NA,NA,NA,NA,NA,1,0,1,1,0,1,0,1,0,0,0,0,0
A2LCOTUKCDULAA,english,52,female,high,high_operative,6837,1,0,0,0,The West district.,The Northeast district.,"The Northeast, Southwest, South, Southeast and North districts.",f,mo-h,exh,1,1,0,0,0,1,1,0,0,0,0,0,1,0
A2LCOTUKCDULAA,english,52,female,low,low_la,17265,0,0,0,1,Diner E.,"Diners C, F, A, D, and E.",Diners A and E.,mo-l,exh,ms-l,1,0,1,0,1,0,1,0,0,0,0,0,0,1
A2LCOTUKCDULAA,english,52,female,control,control_why,2568,1,0,0,0,NA,NA,NA,NA,NA,NA,NA,0,1,0,1,0,1,0,0,0,0,0,0,1
A2LCOTUKCDULAA,english,52,female,exit_quest,NA,76526,john can find coffee at any convenience store.,no it wasnt too difficult it was very involving.,thanks,NA,NA,NA,NA,NA,NA,NA,NA,NA,NA,NA,NA,NA,NA,NA,NA,NA,NA,NA,NA,NA
A35NM2285DUAFH,English,28,female,consent,NA,19216,NA,NA,NA,NA,NA,NA,NA,NA,NA,NA,NA,NA,NA,NA,NA,NA,NA,NA,NA,NA,NA,NA,NA,NA
A35NM2285DUAFH,English,28,female,train,train_f,36639,0,0,0,1,NA,NA,NA,NA,NA,NA,NA,NA,NA,NA,NA,NA,NA,NA,NA,NA,NA,NA,NA,NA
A35NM2285DUAFH,English,28,female,train,train_m,37335,0,0,1,0,NA,NA,NA,NA,NA,NA,NA,NA,NA,NA,NA,NA,NA,NA,NA,NA,NA,NA,NA,NA
A35NM2285DUAFH,English,28,female,high,high_fbi,35300,0,0,1,0,Place E.,Places B and E.,"Places F, A, B, C and E.",mo-l,ms-l,exh,1,0,1,0,1,0,1,1,0,0,0,0,0,0
A35NM2285DUAFH,English,28,female,low,low_brother,20453,0,0,1,0,Stalls C and D.,Stalls A and B.,Stall C.,ms-h,ms-l,mo-h,0,1,0,1,1,0,1,0,1,0,0,0,0,0
A35NM2285DUAFH,English,28,female,control,control_what,27089,1,1,0,0,NA,NA,NA,NA,NA,NA,NA,1,0,1,1,0,1,0,1,0,0,0,0,0
A35NM2285DUAFH,English,28,female,high,high_operative,28635,0,0,1,0,"The Northeast, Southwest, South, Southeast and North districts.",The North district.,The Northeast and Southwest districts.,exh,mo-l,ms-h,1,0,1,1,0,0,1,0,0,0,1,0,0,0
A35NM2285DUAFH,English,28,female,low,low_la,20351,0,0,1,0,Diner B.,Diners A and E.,Diner C.,f,ms-l,mo-h,0,1,0,0,1,1,1,0,1,0,0,0,0,0
A35NM2285DUAFH,English,28,female,control,control_when,24076,0,0,0,1,NA,NA,NA,NA,NA,NA,NA,1,0,0,1,1,1,0,1,0,0,0,0,0
A35NM2285DUAFH,English,28,female,high,high_inspector,29401,1,1,1,0,Restaurant A.,Restaurants C and E.,Restaurants A and B.,mo-h,ms-l,ms-h,0,1,0,1,1,0,1,0,1,0,1,1,0,0
A35NM2285DUAFH,English,28,female,low,low_pic,29613,1,1,1,0,Locations D and F.,Location F.,Locations A and D.,ms-l,mo-l,ms-h,0,0,1,1,1,0,1,0,0,1,1,1,0,0
A35NM2285DUAFH,English,28,female,high,high_terrorism,16388,1,0,0,0,Stores E and B.,"Stores E, B, A, D, and F.",Store C.,ms-h,exh,f,1,0,0,1,0,1,1,0,0,0,1,0,0,0
A35NM2285DUAFH,English,28,female,control,control_why,20877,1,1,0,0,NA,NA,NA,NA,NA,NA,NA,0,0,1,0,1,1,0,0,0,1,0,0,0
A35NM2285DUAFH,English,28,female,low,low_coffee,28605,0,1,1,0,Cafe D.,Cafe E.,Cafes E and B.,mo-l,mo-h,ms-h,0,1,1,1,0,0,1,0,1,0,1,0,0,0
A35NM2285DUAFH,English,28,female,high,high_firefighter,17052,1,1,1,0,The fourth and sixth floors.,The fifth and second floors.,The fifth floor.,ms-l,ms-h,mo-h,0,1,0,1,1,0,1,0,1,0,1,1,0,0
A35NM2285DUAFH,English,28,female,low,low_yoga,22167,0,0,1,0,"Studios F, E, D, C and B.",Studio A.,Studio F.,exh,f,mo-h,1,1,0,0,0,1,1,0,1,0,0,0,0,0
A35NM2285DUAFH,English,28,female,control,control_how,19067,0,0,1,0,NA,NA,NA,NA,NA,NA,NA,1,0,0,0,1,1,0,1,0,0,0,0,0
A35NM2285DUAFH,English,28,female,exit_quest,NA,40449,At the coffee shop.,No problems. It was all easy to understand.,Thanks!,NA,NA,NA,NA,NA,NA,NA,NA,NA,NA,NA,NA,NA,NA,NA,NA,NA,NA,NA,NA,NA
A2L22HZ50T83UK,english,28,female,consent,NA,32495,NA,NA,NA,NA,NA,NA,NA,NA,NA,NA,NA,NA,NA,NA,NA,NA,NA,NA,NA,NA,NA,NA,NA,NA
A2L22HZ50T83UK,english,28,female,train,train_f,52372,0,0,0,1,NA,NA,NA,NA,NA,NA,NA,NA,NA,NA,NA,NA,NA,NA,NA,NA,NA,NA,NA,NA
A2L22HZ50T83UK,english,28,female,train,train_m,23638,0,0,1,0,NA,NA,NA,NA,NA,NA,NA,NA,NA,NA,NA,NA,NA,NA,NA,NA,NA,NA,NA,NA
A2L22HZ50T83UK,english,28,female,high,high_firefighter,25973,1,0,0,0,"The fifth, second, fourth, third and sixth floors.",The sixth floor.,The fourth and sixth floors.,exh,mo-l,ms-l,1,0,1,0,1,0,1,1,0,0,0,0,0,0
A2L22HZ50T83UK,english,28,female,low,low_pic,24857,0,0,0,1,Location B.,Locations D and F.,Location F.,f,ms-l,mo-l,0,0,1,0,1,1,1,0,0,0,0,0,0,1
A2L22HZ50T83UK,english,28,female,high,high_inspector,25269,0,1,0,0,Restaurant E.,Restaurants A and B.,Restaurants C and E.,mo-l,ms-h,ms-l,0,0,1,1,1,0,1,0,0,0,1,0,0,0
A2L22HZ50T83UK,english,28,female,control,control_when,20216,0,1,0,0,NA,NA,NA,NA,NA,NA,NA,0,1,1,1,0,1,0,0,0,1,0,0,0
A2L22HZ50T83UK,english,28,female,low,low_brother,9820,0,1,0,0,Stalls A and B.,Stall C.,Stall B.,ms-l,mo-h,mo-l,0,1,1,0,1,0,1,0,1,0,0,0,0,0
A2L22HZ50T83UK,english,28,female,high,high_operative,11847,1,0,0,0,The Northeast district.,The North district.,The South and North districts.,mo-h,mo-l,ms-l,0,1,1,0,1,0,1,0,1,0,0,0,0,0
A2L22HZ50T83UK,english,28,female,control,control_how,27029,0,0,1,0,NA,NA,NA,NA,NA,NA,NA,1,1,0,1,0,1,0,1,0,0,0,0,0
A2L22HZ50T83UK,english,28,female,low,low_la,13042,0,0,1,0,Diner E.,Diner B.,"Diners C, F, A, D, and E.",mo-l,f,exh,1,0,1,0,0,1,1,1,0,0,0,0,0,0
A2L22HZ50T83UK,english,28,female,high,high_fbi,14481,0,1,0,0,Place D.,Places B and E.,Place E.,f,ms-l,mo-l,0,0,1,0,1,1,1,0,0,0,0,1,0,0
A2L22HZ50T83UK,english,28,female,low,low_yoga,6287,1,0,0,0,Studio F.,"Studios F, E, D, C and B.",Studios F and E.,mo-h,exh,ms-h,1,1,0,1,0,0,1,0,1,0,0,0,0,0
A2L22HZ50T83UK,english,28,female,control,control_why,19452,1,1,0,0,NA,NA,NA,NA,NA,NA,NA,1,0,1,0,0,1,0,1,0,0,0,0,0
A2L22HZ50T83UK,english,28,female,high,high_terrorism,15555,1,0,0,0,Stores A and F.,Store E.,Stores E and B.,ms-l,mo-h,ms-h,0,1,0,1,1,0,1,0,0,0,0,1,0,0
A2L22HZ50T83UK,english,28,female,low,low_coffee,14371,1,1,1,0,Cafes E and B.,Cafe E.,"Cafes E, B, F, C and D.",ms-h,mo-h,exh,1,1,0,1,0,0,1,1,1,0,1,0,0,0
A2L22HZ50T83UK,english,28,female,control,control_what,15833,0,0,0,1,NA,NA,NA,NA,NA,NA,NA,1,0,1,0,0,1,1,1,0,1,0,0,0
A2L22HZ50T83UK,english,28,female,exit_quest,NA,66651,He can find coffee at the coffee shop in 3rd street or at the McDonalds 2 blocks east,not really,,NA,NA,NA,NA,NA,NA,NA,NA,NA,NA,NA,NA,NA,NA,NA,NA,NA,NA,NA,NA,NA
A1U8HCXVACOGJ8,english,53,female,consent,NA,57907,NA,NA,NA,NA,NA,NA,NA,NA,NA,NA,NA,NA,NA,NA,NA,NA,NA,NA,NA,NA,NA,NA,NA,NA
A1U8HCXVACOGJ8,english,53,female,train,train_m,44701,0,1,1,0,NA,NA,NA,NA,NA,NA,NA,NA,NA,NA,NA,NA,NA,NA,NA,NA,NA,NA,NA,NA
A1U8HCXVACOGJ8,english,53,female,train,train_f,36229,0,0,0,1,NA,NA,NA,NA,NA,NA,NA,NA,NA,NA,NA,NA,NA,NA,NA,NA,NA,NA,NA,NA
A1U8HCXVACOGJ8,english,53,female,high,high_terrorism,61048,0,1,1,0,Store F.,Stores E and B.,Store E.,mo-l,ms-h,mo-h,0,1,1,1,0,0,1,0,1,0,1,0,0,0
A1U8HCXVACOGJ8,english,53,female,low,low_coffee,36231,1,1,1,0,Cafes F and D.,Cafe E.,"Cafes E, B, F, C and D.",ms-l,mo-h,exh,1,1,0,0,1,0,1,1,1,0,0,1,0,0
A1U8HCXVACOGJ8,english,53,female,control,control_how,42954,0,1,0,0,NA,NA,NA,NA,NA,NA,NA,1,0,0,1,0,1,1,1,0,0,1,0,0
A1U8HCXVACOGJ8,english,53,female,high,high_operative,41880,1,0,1,0,The Northeast and Southwest districts.,The South and North districts.,The Northeast district.,ms-h,ms-l,mo-h,0,1,0,1,1,0,1,0,1,0,1,0,0,0
A1U8HCXVACOGJ8,english,53,female,low,low_yoga,42597,1,1,1,0,Studios C and B.,Studio F.,"Studios F, E, D, C and B.",ms-l,mo-h,exh,1,1,0,0,1,0,1,1,1,0,0,1,0,0
A1U8HCXVACOGJ8,english,53,female,control,control_when,57456,0,0,1,0,NA,NA,NA,NA,NA,NA,NA,1,0,0,1,0,1,1,1,0,0,1,0,0
A1U8HCXVACOGJ8,english,53,female,high,high_firefighter,25984,1,1,1,0,The fourth and sixth floors.,The sixth floor.,The fifth and second floors.,ms-l,mo-l,ms-h,0,0,1,1,1,0,1,0,0,1,1,1,0,0
A1U8HCXVACOGJ8,english,53,female,low,low_brother,22906,1,1,1,0,Stall B.,"Stalls C, D, A, F and B.",Stalls C and D.,mo-l,exh,ms-h,1,0,1,1,0,0,1,1,0,1,1,0,0,0
A1U8HCXVACOGJ8,english,53,female,high,high_inspector,27951,1,1,1,0,Restaurant A.,Restaurants A and B.,Restaurant E.,mo-h,ms-h,mo-l,0,1,1,1,0,0,1,0,1,1,1,0,0,0
A1U8HCXVACOGJ8,english,53,female,control,control_what,40916,1,0,0,0,NA,NA,NA,NA,NA,NA,NA,1,1,1,0,0,1,0,1,1,1,0,0,0
A1U8HCXVACOGJ8,english,53,female,low,low_pic,24322,1,1,1,0,Locations A and D.,Location A.,Location F.,ms-h,mo-h,mo-l,0,1,1,1,0,0,1,0,1,1,1,0,0,0
A1U8HCXVACOGJ8,english,53,female,high,high_fbi,34919,1,1,1,0,Place E.,Places F and A.,"Places F, A, B, C and E.",mo-l,ms-h,exh,1,0,1,1,0,0,1,1,0,1,1,0,0,0
A1U8HCXVACOGJ8,english,53,female,low,low_la,24789,1,1,1,0,Diners A and E.,Diners C and F.,Diner E.,ms-l,ms-h,mo-l,0,0,1,1,1,0,1,0,0,1,1,1,0,0
A1U8HCXVACOGJ8,english,53,female,control,control_why,20620,1,0,0,0,NA,NA,NA,NA,NA,NA,NA,0,1,1,1,0,1,0,0,1,1,1,0,0
A1U8HCXVACOGJ8,english,53,female,exit_quest,NA,104432,John can find coffee at the shop on the corner,Not especially. I like reading and writing.,Very interesting%2C thank you!,NA,NA,NA,NA,NA,NA,NA,NA,NA,NA,NA,NA,NA,NA,NA,NA,NA,NA,NA,NA,NA
AWPB724OHY99T,English,50,female,consent,NA,16499,NA,NA,NA,NA,NA,NA,NA,NA,NA,NA,NA,NA,NA,NA,NA,NA,NA,NA,NA,NA,NA,NA,NA,NA
AWPB724OHY99T,English,50,female,train,train_f,29643,0,0,0,1,NA,NA,NA,NA,NA,NA,NA,NA,NA,NA,NA,NA,NA,NA,NA,NA,NA,NA,NA,NA
AWPB724OHY99T,English,50,female,train,train_m,20641,0,0,1,0,NA,NA,NA,NA,NA,NA,NA,NA,NA,NA,NA,NA,NA,NA,NA,NA,NA,NA,NA,NA
AWPB724OHY99T,English,50,female,low,low_brother,45703,0,0,1,0,Stall C.,Stall B.,"Stalls C, D, A, F and B.",mo-h,mo-l,exh,1,1,1,0,0,0,1,1,0,0,0,0,0,0
AWPB724OHY99T,English,50,female,high,high_operative,22229,0,0,0,1,The Northeast and Southwest districts.,The South and North districts.,The North district.,ms-h,ms-l,mo-l,0,0,1,1,1,0,1,0,0,0,0,0,0,1
AWPB724OHY99T,English,50,female,low,low_pic,13701,0,0,0,1,Location F.,Location A.,Locations A and D.,mo-l,mo-h,ms-h,0,1,1,1,0,0,1,0,0,0,0,0,0,1
AWPB724OHY99T,English,50,female,control,control_when,25984,0,1,0,0,NA,NA,NA,NA,NA,NA,NA,1,1,1,0,0,1,0,0,0,0,0,0,1
AWPB724OHY99T,English,50,female,high,high_inspector,7812,1,0,0,0,Restaurants A and B.,Restaurant E.,Restaurants C and E.,ms-h,mo-l,ms-l,0,0,1,1,1,0,1,0,0,0,1,0,0,0
AWPB724OHY99T,English,50,female,low,low_coffee,6767,0,1,0,0,"Cafes E, B, F, C and D.",Cafe E.,Cafes F and D.,exh,mo-h,ms-l,1,1,0,0,1,0,1,0,1,0,0,0,0,0
AWPB724OHY99T,English,50,female,control,control_why,10779,1,0,0,0,NA,NA,NA,NA,NA,NA,NA,1,0,0,1,0,1,0,1,0,0,0,0,0
AWPB724OHY99T,English,50,female,high,high_terrorism,16419,0,1,0,0,Stores A and F.,Stores E and B.,Store F.,ms-l,ms-h,mo-l,0,0,1,1,1,0,1,0,0,0,1,0,0,0
AWPB724OHY99T,English,50,female,low,low_yoga,5361,0,1,0,0,Studios C and B.,Studio F.,Studio B.,ms-l,mo-h,mo-l,0,1,1,0,1,0,1,0,1,0,0,0,0,0
AWPB724OHY99T,English,50,female,high,high_firefighter,5198,1,0,0,0,The fifth floor.,The fourth and sixth floors.,The fifth and second floors.,mo-h,ms-l,ms-h,0,1,0,1,1,0,1,0,1,0,0,0,0,0
AWPB724OHY99T,English,50,female,control,control_what,14693,1,1,0,0,NA,NA,NA,NA,NA,NA,NA,1,0,1,1,0,1,0,1,0,0,0,0,0
AWPB724OHY99T,English,50,female,low,low_la,12150,1,0,0,0,Diner C.,Diners A and E.,Diner E.,mo-h,ms-l,mo-l,0,1,1,0,1,0,1,0,1,0,0,0,0,0
AWPB724OHY99T,English,50,female,high,high_fbi,9448,0,0,0,1,Place F.,Places B and E.,Places F and A.,mo-h,ms-l,ms-h,0,1,0,1,1,0,1,0,0,0,0,0,0,1
AWPB724OHY99T,English,50,female,control,control_how,34601,0,1,0,0,NA,NA,NA,NA,NA,NA,NA,1,0,1,1,0,1,0,0,0,0,0,0,1
AWPB724OHY99T,English,50,female,exit_quest,NA,51989,At the local grocery store,Some of the problems seemed to be confusing,Thank you for the interesting study,NA,NA,NA,NA,NA,NA,NA,NA,NA,NA,NA,NA,NA,NA,NA,NA,NA,NA,NA,NA,NA
A25FH7PXC446RG,english,51,female,consent,NA,52874,NA,NA,NA,NA,NA,NA,NA,NA,NA,NA,NA,NA,NA,NA,NA,NA,NA,NA,NA,NA,NA,NA,NA,NA
A25FH7PXC446RG,english,51,female,train,train_f,59191,0,0,0,1,NA,NA,NA,NA,NA,NA,NA,NA,NA,NA,NA,NA,NA,NA,NA,NA,NA,NA,NA,NA
A25FH7PXC446RG,english,51,female,train,train_m,60414,0,0,1,0,NA,NA,NA,NA,NA,NA,NA,NA,NA,NA,NA,NA,NA,NA,NA,NA,NA,NA,NA,NA
A25FH7PXC446RG,english,51,female,high,high_inspector,56952,0,0,0,1,Restaurant A.,Restaurants C and E.,Restaurant E.,mo-h,ms-l,mo-l,0,1,1,0,1,0,1,0,0,0,0,0,0,1
A25FH7PXC446RG,english,51,female,low,low_coffee,91127,0,0,1,0,"Cafes E, B, F, C and D.",Cafes E and B.,Cafe D.,exh,ms-h,mo-l,1,0,1,1,0,0,1,0,0,1,0,0,0,0
A25FH7PXC446RG,english,51,female,control,control_when,36201,0,0,0,1,NA,NA,NA,NA,NA,NA,NA,0,1,1,0,0,1,0,0,1,0,0,0,0
A25FH7PXC446RG,english,51,female,high,high_firefighter,44124,0,0,1,0,The fourth and sixth floors.,The sixth floor.,The fifth and second floors.,ms-l,mo-l,ms-h,0,0,1,1,1,0,1,0,0,0,1,0,0,0
A25FH7PXC446RG,english,51,female,low,low_yoga,18649,1,0,0,0,Studios F and E.,Studio B.,Studios C and B.,ms-h,mo-l,ms-l,0,0,1,1,1,0,1,0,0,0,1,0,0,0
A25FH7PXC446RG,english,51,female,control,control_why,57960,1,0,0,0,NA,NA,NA,NA,NA,NA,NA,0,1,1,1,0,1,0,0,0,1,0,0,0
A25FH7PXC446RG,english,51,female,high,high_fbi,35849,0,0,0,1,"Places F, A, B, C and E.",Place E.,Places B and E.,exh,mo-l,ms-l,1,0,1,0,1,0,1,0,0,0,0,0,0,1
A25FH7PXC446RG,english,51,female,low,low_la,13040,0,1,0,0,Diners A and E.,Diner C.,Diner B.,ms-l,mo-h,f,0,1,0,0,1,1,1,0,1,0,0,0,0,0
A25FH7PXC446RG,english,51,female,high,high_terrorism,26530,0,0,1,1,"Stores E, B, A, D, and F.",Store C.,Store F.,exh,f,mo-l,1,0,1,0,0,1,1,0,0,1,0,0,0,1
A25FH7PXC446RG,english,51,female,control,control_what,30675,1,0,0,0,NA,NA,NA,NA,NA,NA,NA,0,1,0,0,1,1,0,0,1,0,0,0,1
A25FH7PXC446RG,english,51,female,low,low_pic,22491,0,0,0,1,"Locations A, D, E, and F.",Location F.,Locations D and F.,exh,mo-l,ms-l,1,0,1,0,1,0,1,0,0,0,0,0,0,1
A25FH7PXC446RG,english,51,female,high,high_operative,33778,0,0,1,0,The North district.,"The Northeast, Southwest, South, Southeast and North districts.",The Northeast and Southwest districts.,mo-l,exh,ms-h,1,0,1,1,0,0,1,0,0,0,1,0,0,0
A25FH7PXC446RG,english,51,female,low,low_brother,15244,1,0,0,0,Stalls C and D.,Stall E.,"Stalls C, D, A, F and B.",ms-h,f,exh,1,0,0,1,0,1,1,0,0,0,1,0,0,0
A25FH7PXC446RG,english,51,female,control,control_how,43334,0,0,1,0,NA,NA,NA,NA,NA,NA,NA,0,0,1,0,1,1,0,0,0,1,0,0,0
A25FH7PXC446RG,english,51,female,exit_quest,NA,110845,At a gas station,No I just answered the question,,NA,NA,NA,NA,NA,NA,NA,NA,NA,NA,NA,NA,NA,NA,NA,NA,NA,NA,NA,NA,NA
A26M997VYVK0E6,english,31,male,consent,NA,17858,NA,NA,NA,NA,NA,NA,NA,NA,NA,NA,NA,NA,NA,NA,NA,NA,NA,NA,NA,NA,NA,NA,NA,NA
A26M997VYVK0E6,english,31,male,train,train_m,82528,0,0,1,0,NA,NA,NA,NA,NA,NA,NA,NA,NA,NA,NA,NA,NA,NA,NA,NA,NA,NA,NA,NA
A26M997VYVK0E6,english,31,male,train,train_f,18854,0,0,0,1,NA,NA,NA,NA,NA,NA,NA,NA,NA,NA,NA,NA,NA,NA,NA,NA,NA,NA,NA,NA
A26M997VYVK0E6,english,31,male,high,high_terrorism,31548,0,1,0,0,Store F.,Store E.,Stores E and B.,mo-l,mo-h,ms-h,0,1,1,1,0,0,1,0,1,0,0,0,0,0
A26M997VYVK0E6,english,31,male,low,low_yoga,15992,0,1,0,0,Studio A.,"Studios F, E, D, C and B.",Studios C and B.,f,exh,ms-l,1,0,0,0,1,1,1,1,0,0,0,0,0,0
A26M997VYVK0E6,english,31,male,control,control_why,5716,0,0,0,1,NA,NA,NA,NA,NA,NA,NA,0,0,0,1,1,1,1,0,0,0,0,0,0
A26M997VYVK0E6,english,31,male,high,high_inspector,44782,0,0,1,0,Restaurants C and E.,Restaurant F.,Restaurants A and B.,ms-l,f,ms-h,0,0,0,1,1,1,1,0,0,0,1,0,0,0
A26M997VYVK0E6,english,31,male,low,low_la,5438,1,0,0,0,Diner E.,Diners A and E.,Diner C.,mo-l,ms-l,mo-h,0,1,1,0,1,0,1,0,0,1,0,0,0,0
A26M997VYVK0E6,english,31,male,control,control_how,25846,0,0,1,0,NA,NA,NA,NA,NA,NA,NA,1,1,0,1,0,1,0,0,1,0,0,0,0
A26M997VYVK0E6,english,31,male,high,high_fbi,28088,0,1,0,0,Place E.,Places F and A.,Places B and E.,mo-l,ms-h,ms-l,0,0,1,1,1,0,1,0,0,0,1,0,0,0
A26M997VYVK0E6,english,31,male,low,low_brother,41150,0,1,0,0,Stall C.,Stalls C and D.,Stall B.,mo-h,ms-h,mo-l,0,1,1,1,0,0,1,0,0,0,1,0,0,0
A26M997VYVK0E6,english,31,male,high,high_firefighter,73590,0,1,0,0,"The fifth, second, fourth, third and sixth floors.",The fifth and second floors.,The fifth floor.,exh,ms-h,mo-h,1,1,0,1,0,0,1,0,0,0,1,0,0,0
A26M997VYVK0E6,english,31,male,control,control_what,10358,1,0,0,0,NA,NA,NA,NA,NA,NA,NA,1,0,1,0,0,1,0,0,0,1,0,0,0
A26M997VYVK0E6,english,31,male,low,low_coffee,6004,0,1,0,0,Cafes E and B.,Cafe E.,Cafes F and D.,ms-h,mo-h,ms-l,0,1,0,1,1,0,1,0,1,0,0,0,0,0
A26M997VYVK0E6,english,31,male,high,high_operative,37584,1,1,1,0,The South and North districts.,"The Northeast, Southwest, South, Southeast and North districts.",The Northeast and Southwest districts.,ms-l,exh,ms-h,1,0,0,1,1,0,1,1,0,0,1,1,0,0
A26M997VYVK0E6,english,31,male,low,low_pic,27040,1,1,0,0,"Locations A, D, E, and F.",Location F.,Locations A and D.,exh,mo-l,ms-h,1,0,1,1,0,0,1,1,0,1,0,0,0,0
A26M997VYVK0E6,english,31,male,control,control_when,11776,1,1,0,0,NA,NA,NA,NA,NA,NA,NA,0,1,1,0,0,1,1,0,1,0,0,0,0
A26M997VYVK0E6,english,31,male,exit_quest,NA,52026,John can find the coffee at the coffees shop,No%2C it was pretty straight forward.,no,NA,NA,NA,NA,NA,NA,NA,NA,NA,NA,NA,NA,NA,NA,NA,NA,NA,NA,NA,NA,NA
A1N4AZ1QXPOPXH,English,32,male,consent,NA,15090,NA,NA,NA,NA,NA,NA,NA,NA,NA,NA,NA,NA,NA,NA,NA,NA,NA,NA,NA,NA,NA,NA,NA,NA
A1N4AZ1QXPOPXH,English,32,male,train,train_f,14748,0,0,0,1,NA,NA,NA,NA,NA,NA,NA,NA,NA,NA,NA,NA,NA,NA,NA,NA,NA,NA,NA,NA
A1N4AZ1QXPOPXH,English,32,male,train,train_m,15942,0,0,1,0,NA,NA,NA,NA,NA,NA,NA,NA,NA,NA,NA,NA,NA,NA,NA,NA,NA,NA,NA,NA
A1N4AZ1QXPOPXH,English,32,male,high,high_firefighter,17462,0,0,0,1,The fourth and sixth floors.,The fifth floor.,The fifth and second floors.,ms-l,mo-h,ms-h,0,1,0,1,1,0,1,0,0,0,0,0,0,1
A1N4AZ1QXPOPXH,English,32,male,low,low_coffee,16711,1,1,1,0,Cafes E and B.,Cafe E.,Cafe D.,ms-h,mo-h,mo-l,0,1,1,1,0,0,1,0,1,1,1,0,0,0
A1N4AZ1QXPOPXH,English,32,male,control,control_what,21515,1,0,0,0,NA,NA,NA,NA,NA,NA,NA,1,1,1,0,0,1,0,1,1,1,0,0,0
A1N4AZ1QXPOPXH,English,32,male,high,high_fbi,18054,0,0,1,0,Place E.,"Places F, A, B, C and E.",Places F and A.,mo-l,exh,ms-h,1,0,1,1,0,0,1,0,0,0,1,0,0,0
A1N4AZ1QXPOPXH,English,32,male,low,low_yoga,11022,0,1,0,0,Studio A.,Studio F.,Studio B.,f,mo-h,mo-l,0,1,1,0,0,1,1,0,1,0,0,0,0,0
A1N4AZ1QXPOPXH,English,32,male,control,control_when,13999,0,0,0,1,NA,NA,NA,NA,NA,NA,NA,1,1,0,0,1,1,0,1,0,0,0,0,0
A1N4AZ1QXPOPXH,English,32,male,high,high_operative,11976,0,1,0,0,The South and North districts.,The Northeast and Southwest districts.,"The Northeast, Southwest, South, Southeast and North districts.",ms-l,ms-h,exh,1,0,0,1,1,0,1,0,0,0,1,0,0,0
A1N4AZ1QXPOPXH,English,32,male,low,low_brother,10727,0,0,0,1,Stall E.,Stalls A and B.,Stall B.,f,ms-l,mo-l,0,0,1,0,1,1,1,0,0,0,0,0,0,1
A1N4AZ1QXPOPXH,English,32,male,high,high_terrorism,17793,1,0,0,0,"Stores E, B, A, D, and F.",Store E.,Store C.,exh,mo-h,f,1,1,0,0,0,1,1,1,0,0,0,0,0,0
A1N4AZ1QXPOPXH,English,32,male,control,control_how,25036,0,1,1,0,NA,NA,NA,NA,NA,NA,NA,1,0,0,0,1,1,1,0,0,0,0,0,0
A1N4AZ1QXPOPXH,English,32,male,low,low_la,8572,0,0,0,1,Diner B.,Diners A and E.,Diner E.,f,ms-l,mo-l,0,0,1,0,1,1,1,0,0,0,0,0,0,1
A1N4AZ1QXPOPXH,English,32,male,high,high_inspector,18485,0,0,1,0,Restaurants C and E.,Restaurants A and B.,"Restaurants A, B, C, D, and E.",ms-l,ms-h,exh,1,0,0,1,1,0,1,1,0,0,0,0,0,0
A1N4AZ1QXPOPXH,English,32,male,low,low_pic,9057,0,0,0,1,Locations A and D.,"Locations A, D, E, and F.",Location F.,ms-h,exh,mo-l,1,0,1,1,0,0,1,0,0,0,0,0,0,1
A1N4AZ1QXPOPXH,English,32,male,control,control_why,54665,0,0,0,1,NA,NA,NA,NA,NA,NA,NA,0,1,1,0,0,1,0,0,0,0,0,0,1
A1N4AZ1QXPOPXH,English,32,male,exit_quest,NA,77537,I think John finds his coffee locally.,Both%2C some were easier to suspect the answer whereas other were a bit more vague and left up to interpretation.,n/a,NA,NA,NA,NA,NA,NA,NA,NA,NA,NA,NA,NA,NA,NA,NA,NA,NA,NA,NA,NA,NA
A1UA911OAE2KFJ,english,30,female,consent,NA,69071,NA,NA,NA,NA,NA,NA,NA,NA,NA,NA,NA,NA,NA,NA,NA,NA,NA,NA,NA,NA,NA,NA,NA,NA
A1UA911OAE2KFJ,english,30,female,train,train_f,65299,0,1,0,0,NA,NA,NA,NA,NA,NA,NA,NA,NA,NA,NA,NA,NA,NA,NA,NA,NA,NA,NA,NA
A1UA911OAE2KFJ,english,30,female,train,train_m,261404,1,0,1,0,NA,NA,NA,NA,NA,NA,NA,NA,NA,NA,NA,NA,NA,NA,NA,NA,NA,NA,NA,NA
A1UA911OAE2KFJ,english,30,female,high,high_firefighter,57373,1,0,0,0,The fifth floor.,The fourth and sixth floors.,The fifth and second floors.,mo-h,ms-l,ms-h,0,1,0,1,1,0,1,0,1,0,0,0,0,0
A1UA911OAE2KFJ,english,30,female,low,low_coffee,6979,0,0,1,0,Cafes F and D.,"Cafes E, B, F, C and D.",Cafe D.,ms-l,exh,mo-l,1,0,1,0,1,0,1,0,0,1,0,0,0,0
A1UA911OAE2KFJ,english,30,female,high,high_inspector,10178,1,1,0,0,Restaurant F.,Restaurant A.,Restaurants C and E.,f,mo-h,ms-l,0,1,0,0,1,1,1,0,1,0,0,0,1,0
A1UA911OAE2KFJ,english,30,female,control,control_how,4620,0,1,1,0,NA,NA,NA,NA,NA,NA,NA,1,0,0,1,1,1,0,1,0,0,0,1,0
A1UA911OAE2KFJ,english,30,female,low,low_brother,4082,1,0,0,0,Stall C.,Stall B.,Stalls A and B.,mo-h,mo-l,ms-l,0,1,1,0,1,0,1,0,1,0,0,0,0,0
A1UA911OAE2KFJ,english,30,female,high,high_operative,2839,0,1,0,0,The South and North districts.,"The Northeast, Southwest, South, Southeast and North districts.",The Northeast district.,ms-l,exh,mo-h,1,1,0,0,1,0,1,1,0,0,0,0,0,0
A1UA911OAE2KFJ,english,30,female,control,control_when,4222,1,1,0,0,NA,NA,NA,NA,NA,NA,NA,1,0,0,1,0,1,1,0,0,0,0,0,0
A1UA911OAE2KFJ,english,30,female,low,low_la,12584,1,0,0,0,Diner E.,"Diners C, F, A, D, and E.",Diners C and F.,mo-l,exh,ms-h,1,0,1,1,0,0,1,0,0,1,0,0,0,0
A1UA911OAE2KFJ,english,30,female,high,high_fbi,4195,0,1,0,0,Places B and E.,Place F.,"Places F, A, B, C and E.",ms-l,mo-h,exh,1,1,0,0,1,0,1,0,1,0,0,0,0,0
A1UA911OAE2KFJ,english,30,female,low,low_yoga,7827,1,1,0,0,Studio F.,Studio A.,Studios C and B.,mo-h,f,ms-l,0,1,0,0,1,1,1,0,1,0,0,0,1,0
A1UA911OAE2KFJ,english,30,female,control,control_what,3291,1,1,0,0,NA,NA,NA,NA,NA,NA,NA,1,0,0,1,1,1,0,1,0,0,0,1,0
A1UA911OAE2KFJ,english,30,female,high,high_terrorism,2082,0,1,0,0,Store F.,Stores E and B.,Stores A and F.,mo-l,ms-h,ms-l,0,0,1,1,1,0,1,0,0,0,1,0,0,0
A1UA911OAE2KFJ,english,30,female,low,low_pic,1148,0,0,1,0,Location F.,Locations D and F.,Location A.,mo-l,ms-l,mo-h,0,1,1,0,1,0,1,0,1,0,0,0,0,0
A1UA911OAE2KFJ,english,30,female,control,control_why,1887,0,1,0,0,NA,NA,NA,NA,NA,NA,NA,1,1,0,1,0,1,0,1,0,0,0,0,0
A1UA911OAE2KFJ,english,30,female,exit_quest,NA,86892,at the cafe,no,none,NA,NA,NA,NA,NA,NA,NA,NA,NA,NA,NA,NA,NA,NA,NA,NA,NA,NA,NA,NA,NA
ADZHJZ078THWQ,English,23,male,consent,NA,39311,NA,NA,NA,NA,NA,NA,NA,NA,NA,NA,NA,NA,NA,NA,NA,NA,NA,NA,NA,NA,NA,NA,NA,NA
ADZHJZ078THWQ,English,23,male,train,train_m,77958,0,1,1,0,NA,NA,NA,NA,NA,NA,NA,NA,NA,NA,NA,NA,NA,NA,NA,NA,NA,NA,NA,NA
ADZHJZ078THWQ,English,23,male,train,train_f,9885,0,0,0,1,NA,NA,NA,NA,NA,NA,NA,NA,NA,NA,NA,NA,NA,NA,NA,NA,NA,NA,NA,NA
ADZHJZ078THWQ,English,23,male,high,high_fbi,7605,1,0,1,0,Place F.,Place E.,Places F and A.,mo-h,mo-l,ms-h,0,1,1,1,0,0,1,0,1,0,1,0,0,0
ADZHJZ078THWQ,English,23,male,low,low_brother,8971,1,0,1,0,Stall C.,Stall B.,Stalls C and D.,mo-h,mo-l,ms-h,0,1,1,1,0,0,1,0,1,0,1,0,0,0
ADZHJZ078THWQ,English,23,male,control,control_what,6615,1,0,0,0,NA,NA,NA,NA,NA,NA,NA,1,1,1,0,0,1,0,1,0,1,0,0,0
ADZHJZ078THWQ,English,23,male,high,high_operative,11437,1,0,0,0,"The Northeast, Southwest, South, Southeast and North districts.",The North district.,The West district.,exh,mo-l,f,1,0,1,0,0,1,1,1,0,0,0,0,0,0
ADZHJZ078THWQ,English,23,male,low,low_yoga,9403,0,0,1,0,Studios C and B.,"Studios F, E, D, C and B.",Studios F and E.,ms-l,exh,ms-h,1,0,0,1,1,0,1,0,0,0,1,0,0,0
ADZHJZ078THWQ,English,23,male,control,control_why,6990,1,0,0,0,NA,NA,NA,NA,NA,NA,NA,0,0,1,1,0,1,0,0,0,1,0,0,0
ADZHJZ078THWQ,English,23,male,high,high_inspector,11958,1,1,1,0,Restaurants A and B.,Restaurant A.,Restaurants C and E.,ms-h,mo-h,ms-l,0,1,0,1,1,0,1,0,1,0,1,1,0,0
ADZHJZ078THWQ,English,23,male,low,low_coffee,6727,1,0,0,0,Cafe E.,Cafe A.,"Cafes E, B, F, C and D.",mo-h,f,exh,1,1,0,0,0,1,1,0,1,0,0,0,0,0
ADZHJZ078THWQ,English,23,male,high,high_firefighter,24904,1,0,1,0,The fifth floor.,The first floor.,The sixth floor.,mo-h,f,mo-l,0,1,1,0,0,1,1,0,1,1,0,0,0,0
ADZHJZ078THWQ,English,23,male,control,control_how,7981,0,1,0,0,NA,NA,NA,NA,NA,NA,NA,1,1,0,0,1,1,0,1,1,0,0,0,0
ADZHJZ078THWQ,English,23,male,low,low_la,8437,0,1,1,0,Diners A and E.,Diners C and F.,Diner C.,ms-l,ms-h,mo-h,0,1,0,1,1,0,1,0,1,0,1,0,0,0
ADZHJZ078THWQ,English,23,male,high,high_terrorism,10670,1,0,1,0,Stores E and B.,Store F.,Store E.,ms-h,mo-l,mo-h,0,1,1,1,0,0,1,0,1,0,1,0,0,0
ADZHJZ078THWQ,English,23,male,low,low_pic,24579,1,0,1,0,Location A.,Locations D and F.,Locations A and D.,mo-h,ms-l,ms-h,0,1,0,1,1,0,1,0,1,0,1,0,0,0
ADZHJZ078THWQ,English,23,male,control,control_when,6814,0,0,0,1,NA,NA,NA,NA,NA,NA,NA,1,0,1,1,0,1,0,1,0,1,0,0,0
ADZHJZ078THWQ,English,23,male,exit_quest,NA,36751,I think there is a coffee shop around here,No%2C it is simply making sure to read the scenario carefully.,,NA,NA,NA,NA,NA,NA,NA,NA,NA,NA,NA,NA,NA,NA,NA,NA,NA,NA,NA,NA,NA
A1TA2I82B8DJSA,English,36,male,consent,NA,46499,NA,NA,NA,NA,NA,NA,NA,NA,NA,NA,NA,NA,NA,NA,NA,NA,NA,NA,NA,NA,NA,NA,NA,NA
A1TA2I82B8DJSA,English,36,male,train,train_m,57549,0,0,1,0,NA,NA,NA,NA,NA,NA,NA,NA,NA,NA,NA,NA,NA,NA,NA,NA,NA,NA,NA,NA
A1TA2I82B8DJSA,English,36,male,train,train_f,37927,0,0,0,1,NA,NA,NA,NA,NA,NA,NA,NA,NA,NA,NA,NA,NA,NA,NA,NA,NA,NA,NA,NA
A1TA2I82B8DJSA,English,36,male,high,high_firefighter,33233,1,1,0,0,The fifth floor.,The fifth and second floors.,The first floor.,mo-h,ms-h,f,0,1,0,1,0,1,1,0,1,0,1,0,0,0
A1TA2I82B8DJSA,English,36,male,low,low_la,37450,1,0,0,0,Diners C and F.,"Diners C, F, A, D, and E.",Diner E.,ms-h,exh,mo-l,1,0,1,1,0,0,1,0,0,0,1,0,0,0
A1TA2I82B8DJSA,English,36,male,control,control_why,39936,1,1,0,0,NA,NA,NA,NA,NA,NA,NA,0,1,1,0,0,1,0,0,0,1,0,0,0
A1TA2I82B8DJSA,English,36,male,high,high_fbi,31633,1,1,1,0,Place E.,Place F.,Places F and A.,mo-l,mo-h,ms-h,0,1,1,1,0,0,1,0,1,1,1,0,0,0
A1TA2I82B8DJSA,English,36,male,low,low_coffee,34316,0,1,0,0,Cafe D.,Cafes E and B.,Cafe A.,mo-l,ms-h,f,0,0,1,1,0,1,1,0,0,0,1,0,0,0
A1TA2I82B8DJSA,English,36,male,control,control_when,36906,0,1,0,0,NA,NA,NA,NA,NA,NA,NA,0,1,1,0,1,1,0,0,0,1,0,0,0
A1TA2I82B8DJSA,English,36,male,high,high_operative,70385,1,1,0,0,The Northeast district.,"The Northeast, Southwest, South, Southeast and North districts.",The North district.,mo-h,exh,mo-l,1,1,1,0,0,0,1,1,1,0,0,0,0,0
A1TA2I82B8DJSA,English,36,male,low,low_pic,42201,0,1,0,0,"Locations A, D, E, and F.",Location B.,Location A.,exh,f,mo-h,1,1,0,0,0,1,1,0,0,0,0,0,1,0
A1TA2I82B8DJSA,English,36,male,high,high_inspector,47934,1,0,0,0,Restaurant A.,Restaurant E.,Restaurants A and B.,mo-h,mo-l,ms-h,0,1,1,1,0,0,1,0,1,0,0,0,0,0
A1TA2I82B8DJSA,English,36,male,control,control_what,32195,1,1,0,0,NA,NA,NA,NA,NA,NA,NA,1,1,1,0,0,1,0,1,0,0,0,0,0
A1TA2I82B8DJSA,English,36,male,low,low_yoga,20665,1,1,1,0,Studio F.,Studios F and E.,Studio B.,mo-h,ms-h,mo-l,0,1,1,1,0,0,1,0,1,1,1,0,0,0
A1TA2I82B8DJSA,English,36,male,high,high_terrorism,20071,1,1,0,0,"Stores E, B, A, D, and F.",Store C.,Stores E and B.,exh,f,ms-h,1,0,0,1,0,1,1,1,0,0,0,0,1,0
A1TA2I82B8DJSA,English,36,male,low,low_brother,28019,0,1,0,0,Stall B.,Stalls C and D.,Stalls A and B.,mo-l,ms-h,ms-l,0,0,1,1,1,0,1,0,0,0,1,0,0,0
A1TA2I82B8DJSA,English,36,male,control,control_how,42524,1,1,1,0,NA,NA,NA,NA,NA,NA,NA,0,1,1,1,0,1,0,0,0,1,0,0,0
A1TA2I82B8DJSA,English,36,male,exit_quest,NA,81397,John can find coffee at the corner diner.,Yes%2C hard to understand.,,NA,NA,NA,NA,NA,NA,NA,NA,NA,NA,NA,NA,NA,NA,NA,NA,NA,NA,NA,NA,NA
A1WOV2JIV5I9VE,english,22,female,consent,NA,14701,NA,NA,NA,NA,NA,NA,NA,NA,NA,NA,NA,NA,NA,NA,NA,NA,NA,NA,NA,NA,NA,NA,NA,NA
A1WOV2JIV5I9VE,english,22,female,train,train_f,26923,0,0,0,1,NA,NA,NA,NA,NA,NA,NA,NA,NA,NA,NA,NA,NA,NA,NA,NA,NA,NA,NA,NA
A1WOV2JIV5I9VE,english,22,female,train,train_m,22863,0,0,1,0,NA,NA,NA,NA,NA,NA,NA,NA,NA,NA,NA,NA,NA,NA,NA,NA,NA,NA,NA,NA
A1WOV2JIV5I9VE,english,22,female,low,low_la,16826,0,0,1,0,Diner E.,"Diners C, F, A, D, and E.",Diner B.,mo-l,exh,f,1,0,1,0,0,1,1,0,0,0,0,0,1,0
A1WOV2JIV5I9VE,english,22,female,high,high_fbi,12435,1,0,0,0,"Places F, A, B, C and E.",Place E.,Places B and E.,exh,mo-l,ms-l,1,0,1,0,1,0,1,1,0,0,0,0,0,0
A1WOV2JIV5I9VE,english,22,female,low,low_pic,17964,0,0,1,0,Location F.,Locations D and F.,Location A.,mo-l,ms-l,mo-h,0,1,1,0,1,0,1,0,1,0,0,0,0,0
A1WOV2JIV5I9VE,english,22,female,control,control_what,10654,1,0,0,0,NA,NA,NA,NA,NA,NA,NA,1,1,0,1,0,1,0,1,0,0,0,0,0
A1WOV2JIV5I9VE,english,22,female,high,high_operative,8354,0,0,1,0,The South and North districts.,The Northeast and Southwest districts.,The Northeast district.,ms-l,ms-h,mo-h,0,1,0,1,1,0,1,0,1,0,0,0,0,0
A1WOV2JIV5I9VE,english,22,female,low,low_brother,9744,1,0,0,0,Stalls C and D.,Stalls A and B.,Stall E.,ms-h,ms-l,f,0,0,0,1,1,1,1,0,0,0,1,0,0,0
A1WOV2JIV5I9VE,english,22,female,control,control_why,19354,1,0,0,0,NA,NA,NA,NA,NA,NA,NA,0,0,1,1,1,1,0,0,0,1,0,0,0
A1WOV2JIV5I9VE,english,22,female,high,high_terrorism,11184,1,0,0,0,Stores E and B.,Store C.,Store F.,ms-h,f,mo-l,0,0,1,1,0,1,1,0,0,0,1,0,0,0
A1WOV2JIV5I9VE,english,22,female,low,low_coffee,9149,0,1,0,0,Cafes F and D.,Cafe E.,Cafe D.,ms-l,mo-h,mo-l,0,1,1,0,1,0,1,0,1,0,0,0,0,0
A1WOV2JIV5I9VE,english,22,female,high,high_inspector,6483,0,0,1,0,Restaurant E.,Restaurant F.,Restaurants A and B.,mo-l,f,ms-h,0,0,1,1,0,1,1,0,0,0,1,0,0,0
A1WOV2JIV5I9VE,english,22,female,control,control_when,18780,0,1,0,0,NA,NA,NA,NA,NA,NA,NA,0,1,1,0,1,1,0,0,0,1,0,0,0
A1WOV2JIV5I9VE,english,22,female,low,low_yoga,6565,1,0,0,0,Studios F and E.,Studios C and B.,Studio B.,ms-h,ms-l,mo-l,0,0,1,1,1,0,1,0,0,0,1,0,0,0
A1WOV2JIV5I9VE,english,22,female,high,high_firefighter,4928,1,0,0,0,The fifth and second floors.,The sixth floor.,The fourth and sixth floors.,ms-h,mo-l,ms-l,0,0,1,1,1,0,1,0,0,0,1,0,0,0
A1WOV2JIV5I9VE,english,22,female,control,control_how,12248,0,1,1,0,NA,NA,NA,NA,NA,NA,NA,0,1,1,1,0,1,0,0,0,1,0,0,0
A1WOV2JIV5I9VE,english,22,female,exit_quest,NA,39102,In a coffee shop,no,no,NA,NA,NA,NA,NA,NA,NA,NA,NA,NA,NA,NA,NA,NA,NA,NA,NA,NA,NA,NA,NA
A1P0XSCJ9XAV74,English,34,female,consent,NA,18107,NA,NA,NA,NA,NA,NA,NA,NA,NA,NA,NA,NA,NA,NA,NA,NA,NA,NA,NA,NA,NA,NA,NA,NA
A1P0XSCJ9XAV74,English,34,female,train,train_f,44618,0,0,0,1,NA,NA,NA,NA,NA,NA,NA,NA,NA,NA,NA,NA,NA,NA,NA,NA,NA,NA,NA,NA
A1P0XSCJ9XAV74,English,34,female,train,train_m,32563,0,0,1,0,NA,NA,NA,NA,NA,NA,NA,NA,NA,NA,NA,NA,NA,NA,NA,NA,NA,NA,NA,NA
A1P0XSCJ9XAV74,English,34,female,low,low_yoga,60211,0,1,1,0,Studios C and B.,Studios F and E.,Studio F.,ms-l,ms-h,mo-h,0,1,0,1,1,0,1,0,1,0,1,0,0,0
A1P0XSCJ9XAV74,English,34,female,high,high_terrorism,46269,0,1,0,0,"Stores E, B, A, D, and F.",Stores E and B.,Stores A and F.,exh,ms-h,ms-l,1,0,0,1,1,0,1,0,0,0,1,0,0,0
A1P0XSCJ9XAV74,English,34,female,control,control_when,32158,0,0,1,0,NA,NA,NA,NA,NA,NA,NA,0,0,1,1,0,1,0,0,0,1,0,0,0
A1P0XSCJ9XAV74,English,34,female,low,low_coffee,22102,1,1,0,0,Cafe E.,Cafes E and B.,Cafes F and D.,mo-h,ms-h,ms-l,0,1,0,1,1,0,1,0,1,0,1,0,0,0
A1P0XSCJ9XAV74,English,34,female,high,high_operative,59302,0,0,1,0,The South and North districts.,The West district.,"The Northeast, Southwest, South, Southeast and North districts.",ms-l,f,exh,1,0,0,0,1,1,1,1,0,0,0,0,0,0
A1P0XSCJ9XAV74,English,34,female,control,control_why,32321,1,0,0,0,NA,NA,NA,NA,NA,NA,NA,0,0,0,1,1,1,1,0,0,0,0,0,0
A1P0XSCJ9XAV74,English,34,female,low,low_la,37057,1,0,1,0,Diner C.,Diners A and E.,Diners C and F.,mo-h,ms-l,ms-h,0,1,0,1,1,0,1,0,1,0,1,0,0,0
A1P0XSCJ9XAV74,English,34,female,high,high_fbi,30344,0,0,1,0,Places B and E.,Place D.,Places F and A.,ms-l,f,ms-h,0,0,0,1,1,1,1,0,0,0,1,0,0,0
A1P0XSCJ9XAV74,English,34,female,low,low_brother,34609,0,1,0,0,Stall E.,"Stalls C, D, A, F and B.",Stall B.,f,exh,mo-l,1,0,1,0,0,1,1,1,0,0,0,0,0,0
A1P0XSCJ9XAV74,English,34,female,control,control_how,31550,0,1,0,0,NA,NA,NA,NA,NA,NA,NA,0,1,0,0,1,1,1,0,0,0,0,0,0
A1P0XSCJ9XAV74,English,34,female,high,high_firefighter,25415,0,1,0,0,The sixth floor.,The fifth floor.,The first floor.,mo-l,mo-h,f,0,1,1,0,0,1,1,0,1,0,0,0,0,0
A1P0XSCJ9XAV74,English,34,female,low,low_pic,18242,1,0,0,0,Locations A and D.,Location B.,"Locations A, D, E, and F.",ms-h,f,exh,1,0,0,1,0,1,1,0,0,0,1,0,0,0
A1P0XSCJ9XAV74,English,34,female,high,high_inspector,30412,0,0,0,1,Restaurant E.,Restaurant A.,Restaurants C and E.,mo-l,mo-h,ms-l,0,1,1,0,1,0,1,0,0,0,0,0,0,1
A1P0XSCJ9XAV74,English,34,female,control,control_what,15028,1,1,0,0,NA,NA,NA,NA,NA,NA,NA,1,1,0,1,0,1,0,0,0,0,0,0,1
A1P0XSCJ9XAV74,English,34,female,exit_quest,NA,74511,At Starbucks.,Yes%2C because it could be answered in a variety of ways and it seems like everything could be right.,no,NA,NA,NA,NA,NA,NA,NA,NA,NA,NA,NA,NA,NA,NA,NA,NA,NA,NA,NA,NA,NA
A1RZR5XTNOFBDE,English,28,female,consent,NA,29494,NA,NA,NA,NA,NA,NA,NA,NA,NA,NA,NA,NA,NA,NA,NA,NA,NA,NA,NA,NA,NA,NA,NA,NA
A1RZR5XTNOFBDE,English,28,female,train,train_m,47784,0,0,1,0,NA,NA,NA,NA,NA,NA,NA,NA,NA,NA,NA,NA,NA,NA,NA,NA,NA,NA,NA,NA
A1RZR5XTNOFBDE,English,28,female,train,train_f,45243,0,0,0,1,NA,NA,NA,NA,NA,NA,NA,NA,NA,NA,NA,NA,NA,NA,NA,NA,NA,NA,NA,NA
A1RZR5XTNOFBDE,English,28,female,high,high_inspector,42071,1,1,0,0,Restaurants A and B.,Restaurant A.,Restaurant E.,ms-h,mo-h,mo-l,0,1,1,1,0,0,1,0,1,0,1,0,0,0
A1RZR5XTNOFBDE,English,28,female,low,low_brother,103266,0,0,1,0,"Stalls C, D, A, F and B.",Stall C.,Stalls C and D.,exh,mo-h,ms-h,1,1,0,1,0,0,1,0,0,0,1,0,0,0
A1RZR5XTNOFBDE,English,28,female,control,control_how,229333,0,0,1,0,NA,NA,NA,NA,NA,NA,NA,1,0,1,0,0,1,0,0,0,1,0,0,0
A1RZR5XTNOFBDE,English,28,female,high,high_fbi,68487,1,0,0,0,Places F and A.,Place E.,Places B and E.,ms-h,mo-l,ms-l,0,0,1,1,1,0,1,0,0,0,1,0,0,0
A1RZR5XTNOFBDE,English,28,female,low,low_yoga,14433,1,1,0,0,Studios F and E.,Studio A.,Studio B.,ms-h,f,mo-l,0,0,1,1,0,1,1,0,0,0,1,0,1,0
A1RZR5XTNOFBDE,English,28,female,control,control_what,25157,1,0,0,0,NA,NA,NA,NA,NA,NA,NA,0,1,1,0,1,1,0,0,0,1,0,1,0
A1RZR5XTNOFBDE,English,28,female,high,high_terrorism,92146,1,0,0,0,Store E.,Store F.,Store C.,mo-h,mo-l,f,0,1,1,0,0,1,1,0,1,0,0,0,0,0
A1RZR5XTNOFBDE,English,28,female,low,low_coffee,19819,0,0,1,0,Cafes F and D.,Cafe D.,Cafes E and B.,ms-l,mo-l,ms-h,0,0,1,1,1,0,1,0,0,0,1,0,0,0
A1RZR5XTNOFBDE,English,28,female,high,high_firefighter,47685,1,1,0,0,The fifth floor.,The fifth and second floors.,The sixth floor.,mo-h,ms-h,mo-l,0,1,1,1,0,0,1,0,1,0,1,0,0,0
A1RZR5XTNOFBDE,English,28,female,control,control_why,31301,1,1,0,0,NA,NA,NA,NA,NA,NA,NA,1,1,1,0,0,1,0,1,0,1,0,0,0
A1RZR5XTNOFBDE,English,28,female,low,low_la,59427,1,0,0,0,Diners C and F.,Diner E.,Diners A and E.,ms-h,mo-l,ms-l,0,0,1,1,1,0,1,0,0,0,1,0,0,0
A1RZR5XTNOFBDE,English,28,female,high,high_operative,44507,0,1,1,0,The South and North districts.,The Northeast and Southwest districts.,The Northeast district.,ms-l,ms-h,mo-h,0,1,0,1,1,0,1,0,1,0,1,0,0,0
A1RZR5XTNOFBDE,English,28,female,low,low_pic,65410,0,0,1,0,Location F.,Locations D and F.,Locations A and D.,mo-l,ms-l,ms-h,0,0,1,1,1,0,1,0,0,0,1,0,0,0
A1RZR5XTNOFBDE,English,28,female,control,control_when,22570,1,1,0,0,NA,NA,NA,NA,NA,NA,NA,0,1,1,1,0,1,0,0,0,1,0,0,0
A1RZR5XTNOFBDE,English,28,female,exit_quest,NA,61712,John can find the coffee at the top shelf of the bottom cabinet.,No,interesting task,NA,NA,NA,NA,NA,NA,NA,NA,NA,NA,NA,NA,NA,NA,NA,NA,NA,NA,NA,NA,NA
A3OV174HQJIJK8,English,44,male,consent,NA,25014,NA,NA,NA,NA,NA,NA,NA,NA,NA,NA,NA,NA,NA,NA,NA,NA,NA,NA,NA,NA,NA,NA,NA,NA
A3OV174HQJIJK8,English,44,male,train,train_f,133104,0,0,0,1,NA,NA,NA,NA,NA,NA,NA,NA,NA,NA,NA,NA,NA,NA,NA,NA,NA,NA,NA,NA
A3OV174HQJIJK8,English,44,male,train,train_m,31156,0,0,1,0,NA,NA,NA,NA,NA,NA,NA,NA,NA,NA,NA,NA,NA,NA,NA,NA,NA,NA,NA,NA
A3OV174HQJIJK8,English,44,male,low,low_brother,67337,0,1,0,0,Stall E.,Stalls A and B.,Stall C.,f,ms-l,mo-h,0,1,0,0,1,1,1,0,0,0,0,1,0,0
A3OV174HQJIJK8,English,44,male,high,high_firefighter,17293,1,0,1,0,The fifth and second floors.,The fourth and sixth floors.,The fifth floor.,ms-h,ms-l,mo-h,0,1,0,1,1,0,1,0,1,0,1,0,0,0
A3OV174HQJIJK8,English,44,male,control,control_what,30333,1,0,0,0,NA,NA,NA,NA,NA,NA,NA,1,0,1,1,0,1,0,1,0,1,0,0,0
A3OV174HQJIJK8,English,44,male,low,low_la,140295,1,1,0,0,Diners C and F.,Diner C.,Diners A and E.,ms-h,mo-h,ms-l,0,1,0,1,1,0,1,0,1,0,1,0,0,0
A3OV174HQJIJK8,English,44,male,high,high_operative,39090,0,0,0,1,The West district.,The North district.,The South and North districts.,f,mo-l,ms-l,0,0,1,0,1,1,1,0,0,0,0,0,0,1
A3OV174HQJIJK8,English,44,male,control,control_why,220339,1,1,0,0,NA,NA,NA,NA,NA,NA,NA,0,1,0,1,1,1,0,0,0,0,0,0,1
A3OV174HQJIJK8,English,44,male,low,low_yoga,17956,0,1,0,0,Studios C and B.,Studios F and E.,"Studios F, E, D, C and B.",ms-l,ms-h,exh,1,0,0,1,1,0,1,0,0,0,1,0,0,0
A3OV174HQJIJK8,English,44,male,high,high_fbi,110497,0,0,0,1,Place F.,Place D.,"Places F, A, B, C and E.",mo-h,f,exh,1,1,0,0,0,1,1,0,0,0,0,0,0,1
A3OV174HQJIJK8,English,44,male,low,low_pic,10843,0,1,1,0,Location F.,Location A.,Locations A and D.,mo-l,mo-h,ms-h,0,1,1,1,0,0,1,0,1,0,1,0,0,0
A3OV174HQJIJK8,English,44,male,control,control_how,21012,0,1,0,0,NA,NA,NA,NA,NA,NA,NA,1,1,1,0,0,1,0,1,0,1,0,0,0
A3OV174HQJIJK8,English,44,male,high,high_inspector,39987,0,1,1,0,Restaurant E.,Restaurants A and B.,Restaurant A.,mo-l,ms-h,mo-h,0,1,1,1,0,0,1,0,1,0,1,0,0,0
A3OV174HQJIJK8,English,44,male,low,low_coffee,118207,0,1,0,0,Cafe A.,Cafes E and B.,Cafes F and D.,f,ms-h,ms-l,0,0,0,1,1,1,1,0,0,0,1,0,0,0
A3OV174HQJIJK8,English,44,male,high,high_terrorism,9379,0,1,0,0,"Stores E, B, A, D, and F.",Store E.,Stores A and F.,exh,mo-h,ms-l,1,1,0,0,1,0,1,0,1,0,0,0,0,0
A3OV174HQJIJK8,English,44,male,control,control_when,12308,0,0,0,1,NA,NA,NA,NA,NA,NA,NA,1,0,0,1,0,1,0,1,0,0,0,0,0
A3OV174HQJIJK8,English,44,male,exit_quest,NA,63684,He can find it at the coffee shop.,No%2C it was pretty simple. The only difficult part came when I tried to overthink it. ,Thank you for letting me participate. ,NA,NA,NA,NA,NA,NA,NA,NA,NA,NA,NA,NA,NA,NA,NA,NA,NA,NA,NA,NA,NA
AS1QMPXIT1EGX,English,38,female,consent,NA,412260,NA,NA,NA,NA,NA,NA,NA,NA,NA,NA,NA,NA,NA,NA,NA,NA,NA,NA,NA,NA,NA,NA,NA,NA
AS1QMPXIT1EGX,English,38,female,train,train_f,30491,0,0,0,1,NA,NA,NA,NA,NA,NA,NA,NA,NA,NA,NA,NA,NA,NA,NA,NA,NA,NA,NA,NA
AS1QMPXIT1EGX,English,38,female,train,train_m,40623,0,0,1,0,NA,NA,NA,NA,NA,NA,NA,NA,NA,NA,NA,NA,NA,NA,NA,NA,NA,NA,NA,NA
AS1QMPXIT1EGX,English,38,female,low,low_brother,61524,0,0,0,1,"Stalls C, D, A, F and B.",Stall C.,Stalls A and B.,exh,mo-h,ms-l,1,1,0,0,1,0,1,0,0,0,0,0,0,1
AS1QMPXIT1EGX,English,38,female,high,high_terrorism,31873,0,0,1,0,Store F.,Stores A and F.,Store E.,mo-l,ms-l,mo-h,0,1,1,0,1,0,1,0,1,0,0,0,0,0
AS1QMPXIT1EGX,English,38,female,low,low_la,45674,0,0,1,0,Diner E.,Diners A and E.,"Diners C, F, A, D, and E.",mo-l,ms-l,exh,1,0,1,0,1,0,1,1,0,0,0,0,0,0
AS1QMPXIT1EGX,English,38,female,control,control_why,23287,1,0,0,0,NA,NA,NA,NA,NA,NA,NA,0,1,0,1,0,1,1,0,0,0,0,0,0
AS1QMPXIT1EGX,English,38,female,high,high_firefighter,56469,0,0,0,1,The fifth floor.,The first floor.,The fourth and sixth floors.,mo-h,f,ms-l,0,1,0,0,1,1,1,0,0,0,0,0,0,1
AS1QMPXIT1EGX,English,38,female,low,low_pic,20261,1,0,0,0,Location A.,Location F.,Location B.,mo-h,mo-l,f,0,1,1,0,0,1,1,0,1,0,0,0,0,0
AS1QMPXIT1EGX,English,38,female,control,control_what,27000,1,0,0,0,NA,NA,NA,NA,NA,NA,NA,1,1,0,0,1,1,0,1,0,0,0,0,0
AS1QMPXIT1EGX,English,38,female,high,high_operative,64739,0,1,0,0,The Northeast and Southwest districts.,"The Northeast, Southwest, South, Southeast and North districts.",The Northeast district.,ms-h,exh,mo-h,1,1,0,1,0,0,1,1,0,0,0,0,0,0
AS1QMPXIT1EGX,English,38,female,low,low_yoga,82974,1,0,0,0,Studio F.,Studios C and B.,Studio B.,mo-h,ms-l,mo-l,0,1,1,0,1,0,1,0,1,0,0,0,0,0
AS1QMPXIT1EGX,English,38,female,high,high_fbi,26526,0,1,0,0,Place F.,"Places F, A, B, C and E.",Places F and A.,mo-h,exh,ms-h,1,1,0,1,0,0,1,1,0,0,0,0,0,0
AS1QMPXIT1EGX,English,38,female,control,control_when,25399,0,0,0,1,NA,NA,NA,NA,NA,NA,NA,1,0,1,0,0,1,1,0,0,0,0,0,0
AS1QMPXIT1EGX,English,38,female,low,low_coffee,22109,0,0,1,0,Cafe A.,Cafes E and B.,Cafe E.,f,ms-h,mo-h,0,1,0,1,0,1,1,0,1,0,0,0,0,0
AS1QMPXIT1EGX,English,38,female,high,high_inspector,30359,0,1,0,0,Restaurant E.,Restaurants A and B.,Restaurant A.,mo-l,ms-h,mo-h,0,1,1,1,0,0,1,0,0,0,1,0,0,0
AS1QMPXIT1EGX,English,38,female,control,control_how,117938,0,0,1,0,NA,NA,NA,NA,NA,NA,NA,1,1,1,0,0,1,0,0,0,1,0,0,0
AS1QMPXIT1EGX,English,38,female,exit_quest,NA,105048,At the coffee cart down the hall.,Not really. The hardest thing was trying to decide if someone's opinion makes it the best answer. For example where should we look for woodworking? That's an opinion. The one with the most stars might not be best for what you're looking for.,,NA,NA,NA,NA,NA,NA,NA,NA,NA,NA,NA,NA,NA,NA,NA,NA,NA,NA,NA,NA,NA
A17PAE30BGBO1T,English,40,male,consent,NA,23338,NA,NA,NA,NA,NA,NA,NA,NA,NA,NA,NA,NA,NA,NA,NA,NA,NA,NA,NA,NA,NA,NA,NA,NA
A17PAE30BGBO1T,English,40,male,train,train_m,68105,0,1,1,0,NA,NA,NA,NA,NA,NA,NA,NA,NA,NA,NA,NA,NA,NA,NA,NA,NA,NA,NA,NA
A17PAE30BGBO1T,English,40,male,train,train_f,48607,0,0,0,1,NA,NA,NA,NA,NA,NA,NA,NA,NA,NA,NA,NA,NA,NA,NA,NA,NA,NA,NA,NA
A17PAE30BGBO1T,English,40,male,low,low_yoga,27773,0,0,1,0,Studios C and B.,Studio B.,Studios F and E.,ms-l,mo-l,ms-h,0,0,1,1,1,0,1,0,0,0,1,0,0,0
A17PAE30BGBO1T,English,40,male,high,high_firefighter,57264,0,0,1,0,The fifth floor.,The fifth and second floors.,"The fifth, second, fourth, third and sixth floors.",mo-h,ms-h,exh,1,1,0,1,0,0,1,1,0,0,0,0,0,0
A17PAE30BGBO1T,English,40,male,low,low_coffee,31655,0,1,0,0,Cafe D.,"Cafes E, B, F, C and D.",Cafe A.,mo-l,exh,f,1,0,1,0,0,1,1,1,0,0,0,0,0,0
A17PAE30BGBO1T,English,40,male,control,control_what,28388,1,0,0,0,NA,NA,NA,NA,NA,NA,NA,0,1,0,0,1,1,1,0,0,0,0,0,0
A17PAE30BGBO1T,English,40,male,high,high_inspector,44832,1,0,0,0,"Restaurants A, B, C, D, and E.",Restaurants C and E.,Restaurant E.,exh,ms-l,mo-l,1,0,1,0,1,0,1,1,0,0,0,0,0,0
A17PAE30BGBO1T,English,40,male,low,low_brother,29664,0,0,1,0,Stall E.,Stall C.,Stalls C and D.,f,mo-h,ms-h,0,1,0,1,0,1,1,0,0,0,1,0,0,0
A17PAE30BGBO1T,English,40,male,control,control_why,20322,1,0,0,0,NA,NA,NA,NA,NA,NA,NA,1,0,1,0,1,1,0,0,0,1,0,0,0
A17PAE30BGBO1T,English,40,male,high,high_fbi,23306,1,0,0,0,"Places F, A, B, C and E.",Places B and E.,Place D.,exh,ms-l,f,1,0,0,0,1,1,1,1,0,0,0,0,0,0
A17PAE30BGBO1T,English,40,male,low,low_pic,16849,1,0,0,0,Location A.,Location F.,Location B.,mo-h,mo-l,f,0,1,1,0,0,1,1,0,1,0,0,0,0,0
A17PAE30BGBO1T,English,40,male,high,high_operative,24989,0,0,1,0,The North district.,The Northeast district.,"The Northeast, Southwest, South, Southeast and North districts.",mo-l,mo-h,exh,1,1,1,0,0,0,1,1,0,0,0,0,0,0
A17PAE30BGBO1T,English,40,male,control,control_when,44850,0,1,0,0,NA,NA,NA,NA,NA,NA,NA,1,1,0,0,0,1,1,0,0,0,0,0,0
A17PAE30BGBO1T,English,40,male,low,low_la,9767,0,1,0,0,Diners A and E.,Diners C and F.,Diner E.,ms-l,ms-h,mo-l,0,0,1,1,1,0,1,0,0,0,1,0,0,0
A17PAE30BGBO1T,English,40,male,high,high_terrorism,30217,0,1,0,0,Store C.,"Stores E, B, A, D, and F.",Store F.,f,exh,mo-l,1,0,1,0,0,1,1,1,0,0,0,0,0,0
A17PAE30BGBO1T,English,40,male,control,control_how,34667,0,0,1,0,NA,NA,NA,NA,NA,NA,NA,0,1,0,0,1,1,1,0,0,0,0,0,0
A17PAE30BGBO1T,English,40,male,exit_quest,NA,127842,He can find coffee at the store.,It wasn't terribly difficult.,While some of the answers seemed subjective and there could have been more than one answer%2C  I chose the most correct one.,NA,NA,NA,NA,NA,NA,NA,NA,NA,NA,NA,NA,NA,NA,NA,NA,NA,NA,NA,NA,NA
A2EPBSY0VPI38S,english,48,female,consent,NA,63366,NA,NA,NA,NA,NA,NA,NA,NA,NA,NA,NA,NA,NA,NA,NA,NA,NA,NA,NA,NA,NA,NA,NA,NA
A2EPBSY0VPI38S,english,48,female,train,train_m,135302,0,0,1,0,NA,NA,NA,NA,NA,NA,NA,NA,NA,NA,NA,NA,NA,NA,NA,NA,NA,NA,NA,NA
A2EPBSY0VPI38S,english,48,female,train,train_f,39394,0,0,0,1,NA,NA,NA,NA,NA,NA,NA,NA,NA,NA,NA,NA,NA,NA,NA,NA,NA,NA,NA,NA
A2EPBSY0VPI38S,english,48,female,low,low_yoga,48025,1,1,1,0,"Studios F, E, D, C and B.",Studio A.,Studio F.,exh,f,mo-h,1,1,0,0,0,1,1,1,1,0,0,0,1,0
A2EPBSY0VPI38S,english,48,female,high,high_operative,99386,1,1,1,0,The South and North districts.,"The Northeast, Southwest, South, Southeast and North districts.",The Northeast and Southwest districts.,ms-l,exh,ms-h,1,0,0,1,1,0,1,1,0,0,1,1,0,0
A2EPBSY0VPI38S,english,48,female,control,control_what,24091,1,0,0,0,NA,NA,NA,NA,NA,NA,NA,0,0,1,1,0,1,1,0,0,1,1,0,0
A2EPBSY0VPI38S,english,48,female,low,low_brother,29353,1,1,0,0,Stall B.,Stalls A and B.,Stall E.,mo-l,ms-l,f,0,0,1,0,1,1,1,0,0,1,0,1,0,0
A2EPBSY0VPI38S,english,48,female,high,high_fbi,66269,1,1,1,0,Place E.,Places B and E.,Place F.,mo-l,ms-l,mo-h,0,1,1,0,1,0,1,0,1,1,0,1,0,0
A2EPBSY0VPI38S,english,48,female,control,control_when,27190,0,1,0,0,NA,NA,NA,NA,NA,NA,NA,1,1,0,1,0,1,0,1,1,0,1,0,0
A2EPBSY0VPI38S,english,48,female,low,low_la,41578,1,1,1,0,Diner B.,"Diners C, F, A, D, and E.",Diner E.,f,exh,mo-l,1,0,1,0,0,1,1,1,0,1,0,0,1,0
A2EPBSY0VPI38S,english,48,female,high,high_terrorism,39153,1,0,1,0,Store E.,"Stores E, B, A, D, and F.",Stores E and B.,mo-h,exh,ms-h,1,1,0,1,0,0,1,0,1,0,1,0,0,0
A2EPBSY0VPI38S,english,48,female,low,low_coffee,27713,1,1,1,0,"Cafes E, B, F, C and D.",Cafes F and D.,Cafes E and B.,exh,ms-l,ms-h,1,0,0,1,1,0,1,1,0,0,1,1,0,0
A2EPBSY0VPI38S,english,48,female,control,control_why,32160,1,0,0,0,NA,NA,NA,NA,NA,NA,NA,0,0,1,1,0,1,1,0,0,1,1,0,0
A2EPBSY0VPI38S,english,48,female,high,high_inspector,40191,1,1,1,0,Restaurants C and E.,Restaurant A.,Restaurant E.,ms-l,mo-h,mo-l,0,1,1,0,1,0,1,0,1,1,0,1,0,0
A2EPBSY0VPI38S,english,48,female,low,low_pic,52121,1,0,1,0,Locations A and D.,Location F.,Location A.,ms-h,mo-l,mo-h,0,1,1,1,0,0,1,0,1,0,1,0,0,0
A2EPBSY0VPI38S,english,48,female,high,high_firefighter,69569,0,0,1,0,The fourth and sixth floors.,The fifth floor.,"The fifth, second, fourth, third and sixth floors.",ms-l,mo-h,exh,1,1,0,0,1,0,1,1,0,0,0,0,0,0
A2EPBSY0VPI38S,english,48,female,control,control_how,23894,0,0,1,0,NA,NA,NA,NA,NA,NA,NA,1,0,0,1,0,1,1,0,0,0,0,0,0
A2EPBSY0VPI38S,english,48,female,exit_quest,NA,146681,John can find coffee in place a. Not sure how to answer the question. ,the task was a little difficult. the wording was a little tricky. ,no. ,NA,NA,NA,NA,NA,NA,NA,NA,NA,NA,NA,NA,NA,NA,NA,NA,NA,NA,NA,NA,NA
A2GN5L03ZQEOZF,English,25,female,consent,NA,297285,NA,NA,NA,NA,NA,NA,NA,NA,NA,NA,NA,NA,NA,NA,NA,NA,NA,NA,NA,NA,NA,NA,NA,NA
A2GN5L03ZQEOZF,English,25,female,train,train_f,89947,0,0,0,1,NA,NA,NA,NA,NA,NA,NA,NA,NA,NA,NA,NA,NA,NA,NA,NA,NA,NA,NA,NA
A2GN5L03ZQEOZF,English,25,female,train,train_m,52847,0,0,1,0,NA,NA,NA,NA,NA,NA,NA,NA,NA,NA,NA,NA,NA,NA,NA,NA,NA,NA,NA,NA
A2GN5L03ZQEOZF,English,25,female,high,high_fbi,29145,1,0,0,0,Places F and A.,Places B and E.,Place F.,ms-h,ms-l,mo-h,0,1,0,1,1,0,1,0,0,0,1,0,0,0
A2GN5L03ZQEOZF,English,25,female,low,low_yoga,30463,0,0,1,0,Studios F and E.,Studio B.,Studio F.,ms-h,mo-l,mo-h,0,1,1,1,0,0,1,0,1,0,0,0,0,0
A2GN5L03ZQEOZF,English,25,female,control,control_what,27235,1,0,0,0,NA,NA,NA,NA,NA,NA,NA,1,1,1,0,0,1,0,1,0,0,0,0,0
A2GN5L03ZQEOZF,English,25,female,high,high_firefighter,68906,1,1,1,0,The fourth and sixth floors.,The fifth and second floors.,The sixth floor.,ms-l,ms-h,mo-l,0,0,1,1,1,0,1,0,0,1,1,1,0,0
A2GN5L03ZQEOZF,English,25,female,low,low_brother,35860,1,1,1,0,Stall B.,Stall C.,Stalls C and D.,mo-l,mo-h,ms-h,0,1,1,1,0,0,1,0,1,1,1,0,0,0
A2GN5L03ZQEOZF,English,25,female,control,control_when,48188,0,1,0,0,NA,NA,NA,NA,NA,NA,NA,1,1,1,0,0,1,0,1,1,1,0,0,0
A2GN5L03ZQEOZF,English,25,female,high,high_operative,73284,0,0,1,0,The North district.,The South and North districts.,The Northeast and Southwest districts.,mo-l,ms-l,ms-h,0,0,1,1,1,0,1,0,0,0,1,0,0,0
A2GN5L03ZQEOZF,English,25,female,low,low_pic,31912,0,0,1,0,Locations D and F.,Location F.,Locations A and D.,ms-l,mo-l,ms-h,0,0,1,1,1,0,1,0,0,0,1,0,0,0
A2GN5L03ZQEOZF,English,25,female,high,high_inspector,31471,1,1,1,0,Restaurant E.,Restaurants A and B.,Restaurant A.,mo-l,ms-h,mo-h,0,1,1,1,0,0,1,0,1,1,1,0,0,0
A2GN5L03ZQEOZF,English,25,female,control,control_how,58959,0,1,0,0,NA,NA,NA,NA,NA,NA,NA,1,1,1,0,0,1,0,1,1,1,0,0,0
A2GN5L03ZQEOZF,English,25,female,low,low_la,53815,1,1,1,0,Diner E.,Diners C and F.,Diners A and E.,mo-l,ms-h,ms-l,0,0,1,1,1,0,1,0,0,1,1,1,0,0
A2GN5L03ZQEOZF,English,25,female,high,high_terrorism,30414,0,1,0,0,Stores E and B.,"Stores E, B, A, D, and F.",Store F.,ms-h,exh,mo-l,1,0,1,1,0,0,1,1,0,0,0,0,0,0
A2GN5L03ZQEOZF,English,25,female,low,low_coffee,19443,1,1,0,0,Cafes E and B.,Cafe E.,Cafe D.,ms-h,mo-h,mo-l,0,1,1,1,0,0,1,0,1,0,1,0,0,0
A2GN5L03ZQEOZF,English,25,female,control,control_why,44278,1,0,0,0,NA,NA,NA,NA,NA,NA,NA,1,1,1,0,0,1,0,1,0,1,0,0,0
A2GN5L03ZQEOZF,English,25,female,exit_quest,NA,128122,John can google the nearest locations that serve coffee.,It was slightly difficult. The questions could be sometimes right so I could choose more than one.,none just Worker id: A2GN5L03ZQEOZF,NA,NA,NA,NA,NA,NA,NA,NA,NA,NA,NA,NA,NA,NA,NA,NA,NA,NA,NA,NA,NA
A2EUXA84IMO859,English,44,female,consent,NA,27299,NA,NA,NA,NA,NA,NA,NA,NA,NA,NA,NA,NA,NA,NA,NA,NA,NA,NA,NA,NA,NA,NA,NA,NA
A2EUXA84IMO859,English,44,female,train,train_m,37100,0,0,1,0,NA,NA,NA,NA,NA,NA,NA,NA,NA,NA,NA,NA,NA,NA,NA,NA,NA,NA,NA,NA
A2EUXA84IMO859,English,44,female,train,train_f,30022,1,0,0,0,NA,NA,NA,NA,NA,NA,NA,NA,NA,NA,NA,NA,NA,NA,NA,NA,NA,NA,NA,NA
A2EUXA84IMO859,English,44,female,low,low_coffee,51777,0,0,1,0,Cafe D.,Cafe A.,"Cafes E, B, F, C and D.",mo-l,f,exh,1,0,1,0,0,1,1,1,0,0,0,0,0,0
A2EUXA84IMO859,English,44,female,high,high_terrorism,29618,1,1,0,0,Stores E and B.,Store E.,Stores A and F.,ms-h,mo-h,ms-l,0,1,0,1,1,0,1,0,1,0,1,0,0,0
A2EUXA84IMO859,English,44,female,control,control_what,19967,1,0,0,0,NA,NA,NA,NA,NA,NA,NA,1,0,1,1,0,1,0,1,0,1,0,0,0
A2EUXA84IMO859,English,44,female,low,low_pic,21960,0,0,1,0,Locations D and F.,Locations A and D.,Location A.,ms-l,ms-h,mo-h,0,1,0,1,1,0,1,0,1,0,0,0,0,0
A2EUXA84IMO859,English,44,female,high,high_fbi,15296,0,0,1,0,Place E.,Places B and E.,Places F and A.,mo-l,ms-l,ms-h,0,0,1,1,1,0,1,0,0,0,1,0,0,0
A2EUXA84IMO859,English,44,female,control,control_when,26256,0,0,0,1,NA,NA,NA,NA,NA,NA,NA,0,1,1,1,0,1,0,0,0,1,0,0,0
A2EUXA84IMO859,English,44,female,low,low_la,8259,0,0,1,0,"Diners C, F, A, D, and E.",Diner E.,Diner C.,exh,mo-l,mo-h,1,1,1,0,0,0,1,0,1,0,0,0,0,0
A2EUXA84IMO859,English,44,female,high,high_operative,21906,0,0,1,0,The South and North districts.,The North district.,The Northeast and Southwest districts.,ms-l,mo-l,ms-h,0,0,1,1,1,0,1,0,0,0,1,0,0,0
A2EUXA84IMO859,English,44,female,low,low_brother,18023,1,0,0,0,Stall C.,"Stalls C, D, A, F and B.",Stalls A and B.,mo-h,exh,ms-l,1,1,0,0,1,0,1,0,1,0,0,0,0,0
A2EUXA84IMO859,English,44,female,control,control_how,30732,0,1,0,0,NA,NA,NA,NA,NA,NA,NA,1,0,0,1,0,1,0,1,0,0,0,0,0
A2EUXA84IMO859,English,44,female,high,high_firefighter,24749,1,1,1,0,The fourth and sixth floors.,The fifth floor.,The first floor.,ms-l,mo-h,f,0,1,0,0,1,1,1,0,1,0,0,1,1,0
A2EUXA84IMO859,English,44,female,low,low_yoga,12390,1,1,1,0,Studio A.,Studios C and B.,Studio B.,f,ms-l,mo-l,0,0,1,0,1,1,1,0,0,1,0,1,1,0
A2EUXA84IMO859,English,44,female,high,high_inspector,29641,1,1,1,0,"Restaurants A, B, C, D, and E.",Restaurants A and B.,Restaurant E.,exh,ms-h,mo-l,1,0,1,1,0,0,1,1,0,1,1,0,0,0
A2EUXA84IMO859,English,44,female,control,control_why,25336,1,1,0,0,NA,NA,NA,NA,NA,NA,NA,0,1,1,0,0,1,1,0,1,1,0,0,0
A2EUXA84IMO859,English,44,female,exit_quest,NA,77417,He can find coffee in the cabinet.,Yes%2C because there were multiple answers for some questions and only 1 answer in others.,I have nothing specific to share at this time.,NA,NA,NA,NA,NA,NA,NA,NA,NA,NA,NA,NA,NA,NA,NA,NA,NA,NA,NA,NA,NA
A3DB11T127QKJF,english,27,male,consent,NA,34771,NA,NA,NA,NA,NA,NA,NA,NA,NA,NA,NA,NA,NA,NA,NA,NA,NA,NA,NA,NA,NA,NA,NA,NA
A3DB11T127QKJF,english,27,male,train,train_f,35790,0,0,0,1,NA,NA,NA,NA,NA,NA,NA,NA,NA,NA,NA,NA,NA,NA,NA,NA,NA,NA,NA,NA
A3DB11T127QKJF,english,27,male,train,train_m,40294,0,1,1,0,NA,NA,NA,NA,NA,NA,NA,NA,NA,NA,NA,NA,NA,NA,NA,NA,NA,NA,NA,NA
A3DB11T127QKJF,english,27,male,high,high_fbi,62039,1,1,1,0,Places F and A.,Place E.,Places B and E.,ms-h,mo-l,ms-l,0,0,1,1,1,0,1,0,0,1,1,1,0,0
A3DB11T127QKJF,english,27,male,low,low_yoga,21925,1,1,1,0,Studios F and E.,Studio B.,Studio F.,ms-h,mo-l,mo-h,0,1,1,1,0,0,1,0,1,1,1,0,0,0
A3DB11T127QKJF,english,27,male,high,high_operative,64545,1,1,1,0,"The Northeast, Southwest, South, Southeast and North districts.",The North district.,The Northeast and Southwest districts.,exh,mo-l,ms-h,1,0,1,1,0,0,1,1,0,1,1,0,0,0
A3DB11T127QKJF,english,27,male,control,control_when,35371,0,0,0,1,NA,NA,NA,NA,NA,NA,NA,0,1,1,0,0,1,1,0,1,1,0,0,0
A3DB11T127QKJF,english,27,male,low,low_brother,38631,1,1,1,0,Stalls A and B.,Stalls C and D.,"Stalls C, D, A, F and B.",ms-l,ms-h,exh,1,0,0,1,1,0,1,1,0,0,1,1,0,0
A3DB11T127QKJF,english,27,male,high,high_inspector,23019,1,1,1,0,Restaurant E.,Restaurant A.,Restaurants C and E.,mo-l,mo-h,ms-l,0,1,1,0,1,0,1,0,1,1,0,1,0,0
A3DB11T127QKJF,english,27,male,control,control_what,20548,1,1,0,0,NA,NA,NA,NA,NA,NA,NA,1,1,0,1,0,1,0,1,1,0,1,0,0
A3DB11T127QKJF,english,27,male,low,low_pic,33537,0,1,1,0,Location B.,Locations D and F.,Location F.,f,ms-l,mo-l,0,0,1,0,1,1,1,0,0,1,0,1,0,0
A3DB11T127QKJF,english,27,male,high,high_terrorism,23445,1,1,1,0,"Stores E, B, A, D, and F.",Stores A and F.,Store E.,exh,ms-l,mo-h,1,1,0,0,1,0,1,1,1,0,0,1,0,0
A3DB11T127QKJF,english,27,male,low,low_coffee,11577,1,1,0,0,Cafes E and B.,Cafe E.,Cafe A.,ms-h,mo-h,f,0,1,0,1,0,1,1,0,1,0,1,0,0,0
A3DB11T127QKJF,english,27,male,control,control_how,23732,0,1,0,0,NA,NA,NA,NA,NA,NA,NA,1,0,1,0,1,1,0,1,0,1,0,0,0
A3DB11T127QKJF,english,27,male,high,high_firefighter,9918,1,1,0,0,The fourth and sixth floors.,The fifth floor.,The first floor.,ms-l,mo-h,f,0,1,0,0,1,1,1,0,1,0,0,1,0,0
A3DB11T127QKJF,english,27,male,low,low_la,11712,1,1,1,0,Diner C.,Diners C and F.,Diner E.,mo-h,ms-h,mo-l,0,1,1,1,0,0,1,0,1,1,1,0,0,0
A3DB11T127QKJF,english,27,male,control,control_why,21574,1,0,0,0,NA,NA,NA,NA,NA,NA,NA,1,1,1,0,0,1,0,1,1,1,0,0,0
A3DB11T127QKJF,english,27,male,exit_quest,NA,44888,He can find it at the shop.,not really. pretty straightforward,,NA,NA,NA,NA,NA,NA,NA,NA,NA,NA,NA,NA,NA,NA,NA,NA,NA,NA,NA,NA,NA
A187VXD4ETY6M2,English,32,female,consent,NA,14913,NA,NA,NA,NA,NA,NA,NA,NA,NA,NA,NA,NA,NA,NA,NA,NA,NA,NA,NA,NA,NA,NA,NA,NA
A187VXD4ETY6M2,English,32,female,train,train_m,21223,0,0,1,0,NA,NA,NA,NA,NA,NA,NA,NA,NA,NA,NA,NA,NA,NA,NA,NA,NA,NA,NA,NA
A187VXD4ETY6M2,English,32,female,train,train_f,27150,0,0,0,1,NA,NA,NA,NA,NA,NA,NA,NA,NA,NA,NA,NA,NA,NA,NA,NA,NA,NA,NA,NA
A187VXD4ETY6M2,English,32,female,low,low_yoga,23294,0,1,0,0,Studios F and E.,Studio F.,Studio B.,ms-h,mo-h,mo-l,0,1,1,1,0,0,1,0,1,0,0,0,0,0
A187VXD4ETY6M2,English,32,female,high,high_firefighter,24202,1,0,0,0,The fifth and second floors.,The sixth floor.,The fourth and sixth floors.,ms-h,mo-l,ms-l,0,0,1,1,1,0,1,0,0,0,1,0,0,0
A187VXD4ETY6M2,English,32,female,control,control_what,9138,0,1,0,0,NA,NA,NA,NA,NA,NA,NA,0,1,1,1,0,1,0,0,0,1,0,0,0
A187VXD4ETY6M2,English,32,female,low,low_pic,73025,1,0,0,0,"Locations A, D, E, and F.",Location F.,Locations D and F.,exh,mo-l,ms-l,1,0,1,0,1,0,1,1,0,0,0,0,0,0
A187VXD4ETY6M2,English,32,female,high,high_terrorism,26511,1,0,1,0,Store E.,Store C.,Stores E and B.,mo-h,f,ms-h,0,1,0,1,0,1,1,0,1,0,1,0,0,0
A187VXD4ETY6M2,English,32,female,control,control_when,42347,0,0,0,1,NA,NA,NA,NA,NA,NA,NA,1,0,1,0,1,1,0,1,0,1,0,0,0
A187VXD4ETY6M2,English,32,female,low,low_brother,39848,1,0,1,0,Stalls A and B.,Stall E.,Stalls C and D.,ms-l,f,ms-h,0,0,0,1,1,1,1,0,0,0,1,1,0,0
A187VXD4ETY6M2,English,32,female,high,high_operative,74089,0,0,0,1,The West district.,The South and North districts.,The North district.,f,ms-l,mo-l,0,0,1,0,1,1,1,0,0,0,0,0,0,1
A187VXD4ETY6M2,English,32,female,low,low_la,16962,1,0,1,0,"Diners C, F, A, D, and E.",Diner E.,Diners C and F.,exh,mo-l,ms-h,1,0,1,1,0,0,1,1,0,0,1,0,0,0
A187VXD4ETY6M2,English,32,female,control,control_why,16193,1,1,0,0,NA,NA,NA,NA,NA,NA,NA,0,1,1,0,0,1,1,0,0,1,0,0,0
A187VXD4ETY6M2,English,32,female,high,high_inspector,32469,0,0,1,0,Restaurant E.,Restaurants C and E.,"Restaurants A, B, C, D, and E.",mo-l,ms-l,exh,1,0,1,0,1,0,1,1,0,0,0,0,0,0
A187VXD4ETY6M2,English,32,female,low,low_coffee,26879,1,1,0,0,Cafes E and B.,"Cafes E, B, F, C and D.",Cafe A.,ms-h,exh,f,1,0,0,1,0,1,1,1,0,0,1,0,0,0
A187VXD4ETY6M2,English,32,female,high,high_fbi,61546,0,0,0,1,Place D.,Place F.,Place E.,f,mo-h,mo-l,0,1,1,0,0,1,1,0,0,0,0,0,0,1
A187VXD4ETY6M2,English,32,female,control,control_how,81333,0,1,0,0,NA,NA,NA,NA,NA,NA,NA,1,1,0,0,1,1,0,0,0,0,0,0,1
A187VXD4ETY6M2,English,32,female,exit_quest,NA,111515,He can find it at the cafe.,no,I'm not sure I answered questions 1 and 2 right here. Was I supposed to remember something from earlier in the survey or just give examples of the right way to answer such questions?,NA,NA,NA,NA,NA,NA,NA,NA,NA,NA,NA,NA,NA,NA,NA,NA,NA,NA,NA,NA,NA
A1USR9JCAMDGM3,English,32,female,consent,NA,122846,NA,NA,NA,NA,NA,NA,NA,NA,NA,NA,NA,NA,NA,NA,NA,NA,NA,NA,NA,NA,NA,NA,NA,NA
A1USR9JCAMDGM3,English,32,female,train,train_m,21580,0,0,1,0,NA,NA,NA,NA,NA,NA,NA,NA,NA,NA,NA,NA,NA,NA,NA,NA,NA,NA,NA,NA
A1USR9JCAMDGM3,English,32,female,train,train_f,32794,0,0,0,1,NA,NA,NA,NA,NA,NA,NA,NA,NA,NA,NA,NA,NA,NA,NA,NA,NA,NA,NA,NA
A1USR9JCAMDGM3,English,32,female,high,high_firefighter,49560,1,1,1,0,The fifth and second floors.,The fifth floor.,"The fifth, second, fourth, third and sixth floors.",ms-h,mo-h,exh,1,1,0,1,0,0,1,1,1,0,1,0,0,0
A1USR9JCAMDGM3,English,32,female,low,low_brother,31787,1,1,1,0,Stall E.,Stalls C and D.,Stall C.,f,ms-h,mo-h,0,1,0,1,0,1,1,0,1,0,1,0,1,0
A1USR9JCAMDGM3,English,32,female,control,control_when,15948,0,1,0,0,NA,NA,NA,NA,NA,NA,NA,1,0,1,0,1,1,0,1,0,1,0,1,0
A1USR9JCAMDGM3,English,32,female,high,high_terrorism,16672,1,1,1,0,"Stores E, B, A, D, and F.",Store E.,Stores E and B.,exh,mo-h,ms-h,1,1,0,1,0,0,1,1,1,0,1,0,0,0
A1USR9JCAMDGM3,English,32,female,low,low_la,21884,0,1,0,0,"Diners C, F, A, D, and E.",Diner C.,Diner B.,exh,mo-h,f,1,1,0,0,0,1,1,0,1,0,0,0,0,0
A1USR9JCAMDGM3,English,32,female,control,control_why,8338,1,1,0,0,NA,NA,NA,NA,NA,NA,NA,1,0,0,0,1,1,0,1,0,0,0,0,0
A1USR9JCAMDGM3,English,32,female,high,high_inspector,29154,0,0,1,0,Restaurants C and E.,Restaurant F.,Restaurant A.,ms-l,f,mo-h,0,1,0,0,1,1,1,0,1,0,0,0,0,0
A1USR9JCAMDGM3,English,32,female,low,low_yoga,7600,0,1,0,0,Studio B.,Studio F.,Studios C and B.,mo-l,mo-h,ms-l,0,1,1,0,1,0,1,0,1,0,0,0,0,0
A1USR9JCAMDGM3,English,32,female,high,high_fbi,7208,0,1,1,0,Places B and E.,Place F.,Places F and A.,ms-l,mo-h,ms-h,0,1,0,1,1,0,1,0,1,0,1,0,0,0
A1USR9JCAMDGM3,English,32,female,control,control_what,16444,1,0,0,0,NA,NA,NA,NA,NA,NA,NA,1,0,1,1,0,1,0,1,0,1,0,0,0
A1USR9JCAMDGM3,English,32,female,low,low_coffee,9437,0,1,0,0,Cafe D.,Cafes E and B.,Cafes F and D.,mo-l,ms-h,ms-l,0,0,1,1,1,0,1,0,0,0,1,0,0,0
A1USR9JCAMDGM3,English,32,female,high,high_operative,18588,1,0,1,0,"The Northeast, Southwest, South, Southeast and North districts.",The West district.,The Northeast district.,exh,f,mo-h,1,1,0,0,0,1,1,1,1,0,0,0,0,0
A1USR9JCAMDGM3,English,32,female,low,low_pic,10355,0,1,1,0,Location B.,"Locations A, D, E, and F.",Location A.,f,exh,mo-h,1,1,0,0,0,1,1,1,1,0,0,0,0,0
A1USR9JCAMDGM3,English,32,female,control,control_how,20145,0,1,1,0,NA,NA,NA,NA,NA,NA,NA,1,0,0,0,1,1,1,1,0,0,0,0,0
A1USR9JCAMDGM3,English,32,female,exit_quest,NA,66703,John can find coffee at the store.,No%2C some parts were a little more difficult but overall it was pretty simple.,Thank You.,NA,NA,NA,NA,NA,NA,NA,NA,NA,NA,NA,NA,NA,NA,NA,NA,NA,NA,NA,NA,NA
A1IS0218RVG60K,English,39,female,consent,NA,1016946,NA,NA,NA,NA,NA,NA,NA,NA,NA,NA,NA,NA,NA,NA,NA,NA,NA,NA,NA,NA,NA,NA,NA,NA
A1IS0218RVG60K,English,39,female,train,train_f,103308,0,0,0,1,NA,NA,NA,NA,NA,NA,NA,NA,NA,NA,NA,NA,NA,NA,NA,NA,NA,NA,NA,NA
A1IS0218RVG60K,English,39,female,train,train_m,16018,0,0,1,0,NA,NA,NA,NA,NA,NA,NA,NA,NA,NA,NA,NA,NA,NA,NA,NA,NA,NA,NA,NA
A1IS0218RVG60K,English,39,female,low,low_yoga,19542,1,1,1,0,Studio A.,Studio F.,Studios F and E.,f,mo-h,ms-h,0,1,0,1,0,1,1,0,1,0,1,0,1,0
A1IS0218RVG60K,English,39,female,high,high_fbi,16138,1,1,1,0,"Places F, A, B, C and E.",Places F and A.,Place D.,exh,ms-h,f,1,0,0,1,0,1,1,1,0,0,1,0,1,0
A1IS0218RVG60K,English,39,female,low,low_pic,66712,0,0,1,0,Location B.,Location F.,Location A.,f,mo-l,mo-h,0,1,1,0,0,1,1,0,1,0,0,0,0,0
A1IS0218RVG60K,English,39,female,control,control_when,13232,0,0,0,1,NA,NA,NA,NA,NA,NA,NA,1,1,0,0,1,1,0,1,0,0,0,0,0
A1IS0218RVG60K,English,39,female,high,high_firefighter,12550,1,1,0,0,"The fifth, second, fourth, third and sixth floors.",The fifth and second floors.,The first floor.,exh,ms-h,f,1,0,0,1,0,1,1,1,0,0,1,0,0,0
A1IS0218RVG60K,English,39,female,low,low_coffee,13814,1,0,0,0,Cafe E.,Cafe D.,Cafes F and D.,mo-h,mo-l,ms-l,0,1,1,0,1,0,1,0,1,0,0,0,0,0
A1IS0218RVG60K,English,39,female,control,control_what,15414,1,0,0,0,NA,NA,NA,NA,NA,NA,NA,1,1,0,1,0,1,0,1,0,0,0,0,0
A1IS0218RVG60K,English,39,female,high,high_operative,19366,1,0,1,0,The South and North districts.,The North district.,The Northeast and Southwest districts.,ms-l,mo-l,ms-h,0,0,1,1,1,0,1,0,0,0,1,1,0,0
A1IS0218RVG60K,English,39,female,low,low_brother,114864,1,1,1,0,Stalls A and B.,Stall C.,Stalls C and D.,ms-l,mo-h,ms-h,0,1,0,1,1,0,1,0,1,0,1,1,0,0
A1IS0218RVG60K,English,39,female,high,high_inspector,12110,1,1,1,0,Restaurant E.,Restaurants A and B.,Restaurants C and E.,mo-l,ms-h,ms-l,0,0,1,1,1,0,1,0,0,1,1,1,0,0
A1IS0218RVG60K,English,39,female,control,control_how,12118,0,1,1,0,NA,NA,NA,NA,NA,NA,NA,0,1,1,1,0,1,0,0,1,1,1,0,0
A1IS0218RVG60K,English,39,female,low,low_la,9198,1,1,1,0,Diner E.,Diners C and F.,Diners A and E.,mo-l,ms-h,ms-l,0,0,1,1,1,0,1,0,0,1,1,1,0,0
A1IS0218RVG60K,English,39,female,high,high_terrorism,14588,1,0,1,0,Stores E and B.,Store F.,Stores A and F.,ms-h,mo-l,ms-l,0,0,1,1,1,0,1,0,0,0,1,1,0,0
A1IS0218RVG60K,English,39,female,control,control_why,53160,1,0,0,0,NA,NA,NA,NA,NA,NA,NA,0,1,1,1,0,1,0,0,0,1,1,0,0
A1IS0218RVG60K,English,39,female,exit_quest,NA,58128,I would probably recommend a store or a cafe.,No%2C it was easy.,Interesting tasks%2C thanks a lot.,NA,NA,NA,NA,NA,NA,NA,NA,NA,NA,NA,NA,NA,NA,NA,NA,NA,NA,NA,NA,NA
A39DNHD26OMN4Q,english,24,male,consent,NA,18446,NA,NA,NA,NA,NA,NA,NA,NA,NA,NA,NA,NA,NA,NA,NA,NA,NA,NA,NA,NA,NA,NA,NA,NA
A39DNHD26OMN4Q,english,24,male,train,train_m,20883,0,0,1,0,NA,NA,NA,NA,NA,NA,NA,NA,NA,NA,NA,NA,NA,NA,NA,NA,NA,NA,NA,NA
A39DNHD26OMN4Q,english,24,male,train,train_f,12233,0,1,0,0,NA,NA,NA,NA,NA,NA,NA,NA,NA,NA,NA,NA,NA,NA,NA,NA,NA,NA,NA,NA
A39DNHD26OMN4Q,english,24,male,high,high_terrorism,3888,0,1,0,0,Store C.,Store E.,Store F.,f,mo-h,mo-l,0,1,1,0,0,1,1,0,1,0,0,0,0,0
A39DNHD26OMN4Q,english,24,male,low,low_yoga,2314,0,0,1,0,Studios C and B.,Studio B.,Studio F.,ms-l,mo-l,mo-h,0,1,1,0,1,0,1,0,1,0,0,0,0,0
A39DNHD26OMN4Q,english,24,male,control,control_what,13498,0,0,1,0,NA,NA,NA,NA,NA,NA,NA,1,1,0,1,0,1,0,1,0,0,0,0,0
A39DNHD26OMN4Q,english,24,male,high,high_fbi,13196,1,1,1,0,Place D.,Place E.,Places F and A.,f,mo-l,ms-h,0,0,1,1,0,1,1,0,0,1,1,0,1,0
A39DNHD26OMN4Q,english,24,male,low,low_pic,33250,1,1,1,0,Location F.,Location A.,"Locations A, D, E, and F.",mo-l,mo-h,exh,1,1,1,0,0,0,1,1,1,1,0,0,0,0
A39DNHD26OMN4Q,english,24,male,control,control_how,2313,0,1,0,0,NA,NA,NA,NA,NA,NA,NA,1,1,0,0,0,1,1,1,1,0,0,0,0
A39DNHD26OMN4Q,english,24,male,high,high_inspector,4019,0,1,0,0,Restaurant E.,"Restaurants A, B, C, D, and E.",Restaurants A and B.,mo-l,exh,ms-h,1,0,1,1,0,0,1,1,0,0,0,0,0,0
A39DNHD26OMN4Q,english,24,male,low,low_coffee,2244,0,0,1,0,Cafes F and D.,Cafes E and B.,Cafe E.,ms-l,ms-h,mo-h,0,1,0,1,1,0,1,0,1,0,0,0,0,0
A39DNHD26OMN4Q,english,24,male,high,high_firefighter,4395,0,1,0,0,The sixth floor.,The fifth and second floors.,The fifth floor.,mo-l,ms-h,mo-h,0,1,1,1,0,0,1,0,0,0,1,0,0,0
A39DNHD26OMN4Q,english,24,male,control,control_when,3938,0,0,1,0,NA,NA,NA,NA,NA,NA,NA,1,1,1,0,0,1,0,0,0,1,0,0,0
A39DNHD26OMN4Q,english,24,male,low,low_brother,3762,0,1,0,0,Stalls C and D.,Stall B.,Stall C.,ms-h,mo-l,mo-h,0,1,1,1,0,0,1,0,0,1,0,0,0,0
A39DNHD26OMN4Q,english,24,male,high,high_operative,3009,0,1,0,0,The North district.,The South and North districts.,The Northeast district.,mo-l,ms-l,mo-h,0,1,1,0,1,0,1,0,0,0,0,1,0,0
A39DNHD26OMN4Q,english,24,male,low,low_la,2301,0,1,0,0,Diner C.,Diners C and F.,Diner E.,mo-h,ms-h,mo-l,0,1,1,1,0,0,1,0,0,0,1,0,0,0
A39DNHD26OMN4Q,english,24,male,control,control_why,1935,0,0,1,0,NA,NA,NA,NA,NA,NA,NA,1,1,1,0,0,1,0,0,0,1,0,0,0
A39DNHD26OMN4Q,english,24,male,exit_quest,NA,82869,At Starbucks.,No%2C it was just weird.,nope!,NA,NA,NA,NA,NA,NA,NA,NA,NA,NA,NA,NA,NA,NA,NA,NA,NA,NA,NA,NA,NA
A1V9G7V6ZYACIR,english,28,male,consent,NA,432200,NA,NA,NA,NA,NA,NA,NA,NA,NA,NA,NA,NA,NA,NA,NA,NA,NA,NA,NA,NA,NA,NA,NA,NA
A1V9G7V6ZYACIR,english,28,male,train,train_m,29252,0,0,1,0,NA,NA,NA,NA,NA,NA,NA,NA,NA,NA,NA,NA,NA,NA,NA,NA,NA,NA,NA,NA
A1V9G7V6ZYACIR,english,28,male,train,train_f,25009,0,1,1,0,NA,NA,NA,NA,NA,NA,NA,NA,NA,NA,NA,NA,NA,NA,NA,NA,NA,NA,NA,NA
A1V9G7V6ZYACIR,english,28,male,high,high_terrorism,56352,1,0,0,0,Store C.,Store F.,Stores E and B.,f,mo-l,ms-h,0,0,1,1,0,1,1,0,0,0,0,0,1,0
A1V9G7V6ZYACIR,english,28,male,low,low_brother,36309,1,1,1,0,Stalls A and B.,Stalls C and D.,Stall B.,ms-l,ms-h,mo-l,0,0,1,1,1,0,1,0,0,1,1,1,0,0
A1V9G7V6ZYACIR,english,28,male,control,control_why,21401,1,0,0,0,NA,NA,NA,NA,NA,NA,NA,0,1,1,1,0,1,0,0,1,1,1,0,0
A1V9G7V6ZYACIR,english,28,male,high,high_inspector,19806,1,1,1,0,Restaurant E.,Restaurants A and B.,Restaurants C and E.,mo-l,ms-h,ms-l,0,0,1,1,1,0,1,0,0,1,1,1,0,0
A1V9G7V6ZYACIR,english,28,male,low,low_pic,27924,0,0,1,0,Location F.,Location A.,Locations D and F.,mo-l,mo-h,ms-l,0,1,1,0,1,0,1,0,0,0,0,1,0,0
A1V9G7V6ZYACIR,english,28,male,control,control_how,12306,0,0,1,0,NA,NA,NA,NA,NA,NA,NA,1,1,0,1,0,1,0,0,0,0,1,0,0
A1V9G7V6ZYACIR,english,28,male,high,high_operative,29334,0,0,1,0,The South and North districts.,The North district.,The Northeast district.,ms-l,mo-l,mo-h,0,1,1,0,1,0,1,0,1,0,0,0,0,0
A1V9G7V6ZYACIR,english,28,male,low,low_coffee,13803,1,1,0,0,Cafes E and B.,Cafe E.,Cafe A.,ms-h,mo-h,f,0,1,0,1,0,1,1,0,1,0,1,0,0,0
A1V9G7V6ZYACIR,english,28,male,high,high_fbi,236961,0,1,1,0,Place E.,Place F.,"Places F, A, B, C and E.",mo-l,mo-h,exh,1,1,1,0,0,0,1,1,1,0,0,0,0,0
A1V9G7V6ZYACIR,english,28,male,control,control_what,17203,1,0,0,0,NA,NA,NA,NA,NA,NA,NA,1,1,0,0,0,1,1,1,0,0,0,0,0
A1V9G7V6ZYACIR,english,28,male,low,low_la,138785,1,1,1,0,"Diners C, F, A, D, and E.",Diners A and E.,Diner E.,exh,ms-l,mo-l,1,0,1,0,1,0,1,1,0,1,0,1,0,0
A1V9G7V6ZYACIR,english,28,male,high,high_firefighter,20917,1,1,1,0,The fourth and sixth floors.,The sixth floor.,The fifth and second floors.,ms-l,mo-l,ms-h,0,0,1,1,1,0,1,0,0,1,1,1,0,0
A1V9G7V6ZYACIR,english,28,male,low,low_yoga,10656,1,1,1,0,Studios C and B.,Studios F and E.,Studio F.,ms-l,ms-h,mo-h,0,1,0,1,1,0,1,0,1,0,1,1,0,0
A1V9G7V6ZYACIR,english,28,male,control,control_when,33438,0,0,0,1,NA,NA,NA,NA,NA,NA,NA,1,0,1,1,0,1,0,1,0,1,1,0,0
A1V9G7V6ZYACIR,english,28,male,exit_quest,NA,40254,John can find the coffee in the fridge.,Yes%2C the different way the phrases were termed sometimes made it hard to figure out who knew what.,no,NA,NA,NA,NA,NA,NA,NA,NA,NA,NA,NA,NA,NA,NA,NA,NA,NA,NA,NA,NA,NA
AM2KK02JXXW48,English,40,male,consent,NA,24936,NA,NA,NA,NA,NA,NA,NA,NA,NA,NA,NA,NA,NA,NA,NA,NA,NA,NA,NA,NA,NA,NA,NA,NA
AM2KK02JXXW48,English,40,male,train,train_f,36987,0,0,0,1,NA,NA,NA,NA,NA,NA,NA,NA,NA,NA,NA,NA,NA,NA,NA,NA,NA,NA,NA,NA
AM2KK02JXXW48,English,40,male,train,train_m,46938,0,1,1,0,NA,NA,NA,NA,NA,NA,NA,NA,NA,NA,NA,NA,NA,NA,NA,NA,NA,NA,NA,NA
AM2KK02JXXW48,English,40,male,high,high_firefighter,44338,1,1,1,0,"The fifth, second, fourth, third and sixth floors.",The fifth and second floors.,The sixth floor.,exh,ms-h,mo-l,1,0,1,1,0,0,1,1,0,1,1,0,0,0
AM2KK02JXXW48,English,40,male,low,low_brother,38529,1,1,1,0,Stalls A and B.,Stall C.,Stalls C and D.,ms-l,mo-h,ms-h,0,1,0,1,1,0,1,0,1,0,1,1,0,0
AM2KK02JXXW48,English,40,male,high,high_inspector,29334,1,1,1,0,Restaurant A.,Restaurant E.,Restaurants A and B.,mo-h,mo-l,ms-h,0,1,1,1,0,0,1,0,1,1,1,0,0,0
AM2KK02JXXW48,English,40,male,control,control_what,23199,1,1,0,0,NA,NA,NA,NA,NA,NA,NA,1,1,1,0,0,1,0,1,1,1,0,0,0
AM2KK02JXXW48,English,40,male,low,low_pic,24289,1,1,1,0,Locations A and D.,Location A.,Locations D and F.,ms-h,mo-h,ms-l,0,1,0,1,1,0,1,0,1,0,1,1,0,0
AM2KK02JXXW48,English,40,male,high,high_operative,68373,1,1,1,0,"The Northeast, Southwest, South, Southeast and North districts.",The Northeast district.,The South and North districts.,exh,mo-h,ms-l,1,1,0,0,1,0,1,1,1,0,0,1,0,0
AM2KK02JXXW48,English,40,male,control,control_why,20303,1,1,0,0,NA,NA,NA,NA,NA,NA,NA,1,0,0,1,0,1,1,1,0,0,1,0,0
AM2KK02JXXW48,English,40,male,low,low_coffee,26632,1,1,0,0,Cafes E and B.,Cafes F and D.,Cafe A.,ms-h,ms-l,f,0,0,0,1,1,1,1,0,0,0,1,1,0,0
AM2KK02JXXW48,English,40,male,high,high_terrorism,41835,1,1,0,0,Store E.,Store F.,Store C.,mo-h,mo-l,f,0,1,1,0,0,1,1,0,1,1,0,0,0,0
AM2KK02JXXW48,English,40,male,low,low_yoga,33599,1,1,1,0,Studio F.,Studio B.,Studios C and B.,mo-h,mo-l,ms-l,0,1,1,0,1,0,1,0,1,1,0,1,0,0
AM2KK02JXXW48,English,40,male,control,control_how,31688,1,1,1,0,NA,NA,NA,NA,NA,NA,NA,1,1,0,1,0,1,0,1,1,0,1,0,0
AM2KK02JXXW48,English,40,male,high,high_fbi,37447,0,1,1,0,Place D.,Places F and A.,Place F.,f,ms-h,mo-h,0,1,0,1,0,1,1,0,1,0,1,0,0,0
AM2KK02JXXW48,English,40,male,low,low_la,106470,1,1,1,0,Diners C and F.,Diner B.,Diners A and E.,ms-h,f,ms-l,0,0,0,1,1,1,1,0,0,0,1,1,1,0
AM2KK02JXXW48,English,40,male,control,control_when,174258,0,0,0,1,NA,NA,NA,NA,NA,NA,NA,0,0,1,1,1,1,0,0,0,1,1,1,0
AM2KK02JXXW48,English,40,male,exit_quest,NA,33197,At the store.,easy.  because it was not hard.,Good Luck!! ,NA,NA,NA,NA,NA,NA,NA,NA,NA,NA,NA,NA,NA,NA,NA,NA,NA,NA,NA,NA,NA
A3L2UB07EZJAMD,English,49,male,consent,NA,274795,NA,NA,NA,NA,NA,NA,NA,NA,NA,NA,NA,NA,NA,NA,NA,NA,NA,NA,NA,NA,NA,NA,NA,NA
A3L2UB07EZJAMD,English,49,male,train,train_m,29539,0,0,1,0,NA,NA,NA,NA,NA,NA,NA,NA,NA,NA,NA,NA,NA,NA,NA,NA,NA,NA,NA,NA
A3L2UB07EZJAMD,English,49,male,train,train_f,25593,0,0,0,1,NA,NA,NA,NA,NA,NA,NA,NA,NA,NA,NA,NA,NA,NA,NA,NA,NA,NA,NA,NA
A3L2UB07EZJAMD,English,49,male,high,high_operative,77881,1,0,0,0,"The Northeast, Southwest, South, Southeast and North districts.",The South and North districts.,The Northeast district.,exh,ms-l,mo-h,1,1,0,0,1,0,1,1,0,0,0,0,0,0
A3L2UB07EZJAMD,English,49,male,low,low_la,32379,1,0,0,0,Diners C and F.,Diner E.,Diners A and E.,ms-h,mo-l,ms-l,0,0,1,1,1,0,1,0,0,0,1,0,0,0
A3L2UB07EZJAMD,English,49,male,control,control_when,26955,0,0,0,1,NA,NA,NA,NA,NA,NA,NA,0,1,1,1,0,1,0,0,0,1,0,0,0
A3L2UB07EZJAMD,English,49,male,high,high_firefighter,121512,0,0,1,0,The fifth floor.,The fourth and sixth floors.,The fifth and second floors.,mo-h,ms-l,ms-h,0,1,0,1,1,0,1,0,0,0,1,0,0,0
A3L2UB07EZJAMD,English,49,male,low,low_coffee,38802,1,0,1,0,Cafe E.,Cafe A.,"Cafes E, B, F, C and D.",mo-h,f,exh,1,1,0,0,0,1,1,1,1,0,0,0,0,0
A3L2UB07EZJAMD,English,49,male,control,control_how,33268,0,1,0,0,NA,NA,NA,NA,NA,NA,NA,1,0,0,0,1,1,1,1,0,0,0,0,0
A3L2UB07EZJAMD,English,49,male,high,high_terrorism,70790,1,0,0,0,Stores E and B.,"Stores E, B, A, D, and F.",Store E.,ms-h,exh,mo-h,1,1,0,1,0,0,1,0,0,0,1,0,0,0
A3L2UB07EZJAMD,English,49,male,low,low_yoga,15201,0,0,1,0,Studio A.,Studios C and B.,Studios F and E.,f,ms-l,ms-h,0,0,0,1,1,1,1,0,0,0,1,0,0,0
A3L2UB07EZJAMD,English,49,male,high,high_fbi,22736,0,0,0,1,Place E.,Place D.,Places B and E.,mo-l,f,ms-l,0,0,1,0,1,1,1,0,0,0,0,0,0,1
A3L2UB07EZJAMD,English,49,male,control,control_what,22734,1,0,0,0,NA,NA,NA,NA,NA,NA,NA,0,1,0,1,1,1,0,0,0,0,0,0,1
A3L2UB07EZJAMD,English,49,male,low,low_brother,28155,0,1,0,0,Stall E.,Stalls C and D.,Stalls A and B.,f,ms-h,ms-l,0,0,0,1,1,1,1,0,0,0,1,0,0,0
