#
# Results on Friday May 04 2018 14:23:40 UTC.
# USER AGENT: Mozilla/5.0 (Macintosh; Intel Mac OS X 10.13; rv:59.0) Gecko/20100101 Firefox/59.0
# Design number was non-random = 0
#
# Columns below this comment are as follows:
# 1. Time results were received.
# 2. MD5 hash of participant's IP address.
# 3. Controller name.
# 4. Item number.
# 5. Element number.
# 6. Type.
# 7. Group.
# 8. Field name.
# 9. Field value.
1525443821,b2c8a1f85e4777aa667ae397ee4dc29f,Form,2,0,consent,NULL,subject_id,asdf
1525443821,b2c8a1f85e4777aa667ae397ee4dc29f,Form,2,0,consent,NULL,native_lang,asdfasdf
1525443821,b2c8a1f85e4777aa667ae397ee4dc29f,Form,2,0,consent,NULL,age,asdfasdf
1525443821,b2c8a1f85e4777aa667ae397ee4dc29f,Form,2,0,consent,NULL,consent_checkbox_,yes
1525443821,b2c8a1f85e4777aa667ae397ee4dc29f,Form,2,0,consent,NULL,dummy_checkbox_,yes
1525443821,b2c8a1f85e4777aa667ae397ee4dc29f,Form,2,0,consent,NULL,sex,male
1525443821,b2c8a1f85e4777aa667ae397ee4dc29f,Form,2,0,consent,NULL,_REACTION_TIME_,9964
1525443821,b2c8a1f85e4777aa667ae397ee4dc29f,Form,1,0,instructions,NULL,dummy_checkbox_,yes
1525443821,b2c8a1f85e4777aa667ae397ee4dc29f,Form,1,0,instructions,NULL,_REACTION_TIME_,1248
1525443821,b2c8a1f85e4777aa667ae397ee4dc29f,Form,3,0,train,NULL,train_f_A_chosen,no
1525443821,b2c8a1f85e4777aa667ae397ee4dc29f,Form,3,0,train,NULL,train_f_B_chosen,yes
1525443821,b2c8a1f85e4777aa667ae397ee4dc29f,Form,3,0,train,NULL,train_f_C_chosen,no
1525443821,b2c8a1f85e4777aa667ae397ee4dc29f,Form,3,0,train,NULL,none_chosen,no
1525443821,b2c8a1f85e4777aa667ae397ee4dc29f,Form,3,0,train,NULL,_REACTION_TIME_,2420
1525443821,b2c8a1f85e4777aa667ae397ee4dc29f,Form,4,0,train,NULL,train_m_A_chosen,yes
1525443821,b2c8a1f85e4777aa667ae397ee4dc29f,Form,4,0,train,NULL,train_m_B_chosen,no
1525443821,b2c8a1f85e4777aa667ae397ee4dc29f,Form,4,0,train,NULL,train_m_C_chosen,no
1525443821,b2c8a1f85e4777aa667ae397ee4dc29f,Form,4,0,train,NULL,none_chosen,no
1525443821,b2c8a1f85e4777aa667ae397ee4dc29f,Form,4,0,train,NULL,_REACTION_TIME_,1740
1525443821,b2c8a1f85e4777aa667ae397ee4dc29f,Form,5,0,train_end,NULL,dummy_checkbox_,yes
1525443821,b2c8a1f85e4777aa667ae397ee4dc29f,Form,5,0,train_end,NULL,_REACTION_TIME_,1778
1525443821,b2c8a1f85e4777aa667ae397ee4dc29f,Form,16,0,low,NULL,answers_reported,placeholderCoworker 1 says%2C "Studio E."%2CCoworker 2 says%2C "Studios A%2C B%2C C%2C D and E."%2CCoworker 3 says%2C "Studios A and B."
1525443821,b2c8a1f85e4777aa667ae397ee4dc29f,Form,16,0,low,NULL,yoga_coworker_A_chosen,yes
1525443821,b2c8a1f85e4777aa667ae397ee4dc29f,Form,16,0,low,NULL,yoga_coworker_B_chosen,no
1525443821,b2c8a1f85e4777aa667ae397ee4dc29f,Form,16,0,low,NULL,yoga_coworker_C_chosen,no
1525443821,b2c8a1f85e4777aa667ae397ee4dc29f,Form,16,0,low,NULL,no_one_chosen,no
1525443821,b2c8a1f85e4777aa667ae397ee4dc29f,Form,16,0,low,NULL,_REACTION_TIME_,7408
1525443821,b2c8a1f85e4777aa667ae397ee4dc29f,Form,9,0,high,NULL,answers_reported,placeholderFirefighter 1 says%2C "The fifth floor."%2CFirefighter 2 says%2C "The first floor."%2CFirefighter 3 says%2C "The fourth and fifth floors."
1525443821,b2c8a1f85e4777aa667ae397ee4dc29f,Form,9,0,high,NULL,firefighter_A_chosen,yes
1525443821,b2c8a1f85e4777aa667ae397ee4dc29f,Form,9,0,high,NULL,firefighter_B_chosen,no
1525443821,b2c8a1f85e4777aa667ae397ee4dc29f,Form,9,0,high,NULL,firefighter_C_chosen,no
1525443821,b2c8a1f85e4777aa667ae397ee4dc29f,Form,9,0,high,NULL,no_one_chosen,no
1525443821,b2c8a1f85e4777aa667ae397ee4dc29f,Form,9,0,high,NULL,_REACTION_TIME_,2768
1525443821,b2c8a1f85e4777aa667ae397ee4dc29f,Form,24,0,nst,NULL,NST_3a_chosen,yes
1525443821,b2c8a1f85e4777aa667ae397ee4dc29f,Form,24,0,nst,NULL,NST_3b_chosen,no
1525443821,b2c8a1f85e4777aa667ae397ee4dc29f,Form,24,0,nst,NULL,NST_3c_chosen,no
1525443821,b2c8a1f85e4777aa667ae397ee4dc29f,Form,24,0,nst,NULL,NST_3d_chosen,no
1525443821,b2c8a1f85e4777aa667ae397ee4dc29f,Form,24,0,nst,NULL,NST_3e_chosen,no
1525443821,b2c8a1f85e4777aa667ae397ee4dc29f,Form,24,0,nst,NULL,_REACTION_TIME_,3480
1525443821,b2c8a1f85e4777aa667ae397ee4dc29f,Form,14,0,low,NULL,answers_reported,placeholderFriend 1 says%2C "Diners A%2C B%2C C%2C D%2C and E."%2CFriend 2 says%2C "Diner A."%2CFriend 3 says%2C "Diner E."
1525443821,b2c8a1f85e4777aa667ae397ee4dc29f,Form,14,0,low,NULL,la_friend_A_chosen,yes
1525443821,b2c8a1f85e4777aa667ae397ee4dc29f,Form,14,0,low,NULL,la_friend_B_chosen,no
1525443821,b2c8a1f85e4777aa667ae397ee4dc29f,Form,14,0,low,NULL,la_friend_C_chosen,no
1525443821,b2c8a1f85e4777aa667ae397ee4dc29f,Form,14,0,low,NULL,no_one_chosen,no
1525443821,b2c8a1f85e4777aa667ae397ee4dc29f,Form,14,0,low,NULL,_REACTION_TIME_,8142
1525443821,b2c8a1f85e4777aa667ae397ee4dc29f,Form,19,0,control,NULL,what_A_chosen,yes
1525443821,b2c8a1f85e4777aa667ae397ee4dc29f,Form,19,0,control,NULL,what_B_chosen,no
1525443821,b2c8a1f85e4777aa667ae397ee4dc29f,Form,19,0,control,NULL,what_C_chosen,no
1525443821,b2c8a1f85e4777aa667ae397ee4dc29f,Form,19,0,control,NULL,none_chosen,no
1525443821,b2c8a1f85e4777aa667ae397ee4dc29f,Form,19,0,control,NULL,_REACTION_TIME_,2070
1525443821,b2c8a1f85e4777aa667ae397ee4dc29f,Form,11,0,high,NULL,answers_reported,placeholderadviser 1 says%2C "Stores D and E."%2Cadviser 2 says%2C "Store E."%2Cadviser 3 says%2C "Stores A and B."
1525443821,b2c8a1f85e4777aa667ae397ee4dc29f,Form,11,0,high,NULL,terrorism_adviser_A_chosen,yes
1525443821,b2c8a1f85e4777aa667ae397ee4dc29f,Form,11,0,high,NULL,terrorism_adviser_B_chosen,no
1525443821,b2c8a1f85e4777aa667ae397ee4dc29f,Form,11,0,high,NULL,terrorism_adviser_C_chosen,no
1525443821,b2c8a1f85e4777aa667ae397ee4dc29f,Form,11,0,high,NULL,no_one_chosen,no
1525443821,b2c8a1f85e4777aa667ae397ee4dc29f,Form,11,0,high,NULL,_REACTION_TIME_,31390
1525443821,b2c8a1f85e4777aa667ae397ee4dc29f,Form,22,0,nst,NULL,NST_1a_chosen,yes
1525443821,b2c8a1f85e4777aa667ae397ee4dc29f,Form,22,0,nst,NULL,NST_1b_chosen,no
1525443821,b2c8a1f85e4777aa667ae397ee4dc29f,Form,22,0,nst,NULL,NST_1c_chosen,no
1525443821,b2c8a1f85e4777aa667ae397ee4dc29f,Form,22,0,nst,NULL,NST_1d_chosen,no
1525443821,b2c8a1f85e4777aa667ae397ee4dc29f,Form,22,0,nst,NULL,_REACTION_TIME_,2206
1525443821,b2c8a1f85e4777aa667ae397ee4dc29f,Form,17,0,low,NULL,answers_reported,placeholderBrother 1 says%2C "Stall F."%2CBrother 2 says%2C "Stalls D and E."%2CBrother 3 says%2C "Stall E."
1525443821,b2c8a1f85e4777aa667ae397ee4dc29f,Form,17,0,low,NULL,brother_A_chosen,yes
1525443821,b2c8a1f85e4777aa667ae397ee4dc29f,Form,17,0,low,NULL,brother_B_chosen,no
1525443821,b2c8a1f85e4777aa667ae397ee4dc29f,Form,17,0,low,NULL,brother_C_chosen,no
1525443821,b2c8a1f85e4777aa667ae397ee4dc29f,Form,17,0,low,NULL,no_one_chosen,no
1525443821,b2c8a1f85e4777aa667ae397ee4dc29f,Form,17,0,low,NULL,_REACTION_TIME_,1868
1525443821,b2c8a1f85e4777aa667ae397ee4dc29f,Form,18,0,control,NULL,why_A_chosen,yes
1525443821,b2c8a1f85e4777aa667ae397ee4dc29f,Form,18,0,control,NULL,why_B_chosen,no
1525443821,b2c8a1f85e4777aa667ae397ee4dc29f,Form,18,0,control,NULL,why_C_chosen,no
1525443821,b2c8a1f85e4777aa667ae397ee4dc29f,Form,18,0,control,NULL,none_chosen,no
1525443821,b2c8a1f85e4777aa667ae397ee4dc29f,Form,18,0,control,NULL,_REACTION_TIME_,1728
1525443821,b2c8a1f85e4777aa667ae397ee4dc29f,Form,10,0,high,NULL,answers_reported,placeholderOperative 1 says%2C "The Northeast district."%2COperative 2 says%2C "The South and North districts."%2COperative 3 says%2C "The North district."
1525443821,b2c8a1f85e4777aa667ae397ee4dc29f,Form,10,0,high,NULL,operative_A_chosen,yes
1525443821,b2c8a1f85e4777aa667ae397ee4dc29f,Form,10,0,high,NULL,operative_B_chosen,no
1525443821,b2c8a1f85e4777aa667ae397ee4dc29f,Form,10,0,high,NULL,operative_C_chosen,no
1525443821,b2c8a1f85e4777aa667ae397ee4dc29f,Form,10,0,high,NULL,no_one_chosen,no
1525443821,b2c8a1f85e4777aa667ae397ee4dc29f,Form,10,0,high,NULL,_REACTION_TIME_,2186
1525443821,b2c8a1f85e4777aa667ae397ee4dc29f,Form,13,0,low,NULL,answers_reported,placeholderCousin 1 says%2C "Locations A and B."%2CCousin 2 says%2C "Location A."%2CCousin 3 says%2C "Locations D and E."
1525443821,b2c8a1f85e4777aa667ae397ee4dc29f,Form,13,0,low,NULL,pic_cousin_A_chosen,yes
1525443821,b2c8a1f85e4777aa667ae397ee4dc29f,Form,13,0,low,NULL,pic_cousin_B_chosen,no
1525443821,b2c8a1f85e4777aa667ae397ee4dc29f,Form,13,0,low,NULL,pic_cousin_C_chosen,no
1525443821,b2c8a1f85e4777aa667ae397ee4dc29f,Form,13,0,low,NULL,no_one_chosen,no
1525443821,b2c8a1f85e4777aa667ae397ee4dc29f,Form,13,0,low,NULL,_REACTION_TIME_,1890
1525443821,b2c8a1f85e4777aa667ae397ee4dc29f,Form,25,0,nst,NULL,NST_4a_chosen,yes
1525443821,b2c8a1f85e4777aa667ae397ee4dc29f,Form,25,0,nst,NULL,NST_4b_chosen,no
1525443821,b2c8a1f85e4777aa667ae397ee4dc29f,Form,25,0,nst,NULL,_REACTION_TIME_,2168
1525443821,b2c8a1f85e4777aa667ae397ee4dc29f,Form,8,0,high,NULL,answers_reported,placeholderInspector 1 says%2C "Restaurants A and B."%2CInspector 2 says%2C "Restaurants C and E."%2CInspector 3 says%2C "Restaurants A%2C B%2C C%2C D%2C and E."
1525443821,b2c8a1f85e4777aa667ae397ee4dc29f,Form,8,0,high,NULL,inspector_A_chosen,yes
1525443821,b2c8a1f85e4777aa667ae397ee4dc29f,Form,8,0,high,NULL,inspector_B_chosen,no
1525443821,b2c8a1f85e4777aa667ae397ee4dc29f,Form,8,0,high,NULL,inspector_C_chosen,no
1525443821,b2c8a1f85e4777aa667ae397ee4dc29f,Form,8,0,high,NULL,no_one_chosen,no
1525443821,b2c8a1f85e4777aa667ae397ee4dc29f,Form,8,0,high,NULL,_REACTION_TIME_,4518
1525443821,b2c8a1f85e4777aa667ae397ee4dc29f,Form,21,0,control,NULL,how_guest_A_chosen,yes
1525443821,b2c8a1f85e4777aa667ae397ee4dc29f,Form,21,0,control,NULL,how_guest_B_chosen,no
1525443821,b2c8a1f85e4777aa667ae397ee4dc29f,Form,21,0,control,NULL,how_guest_C_chosen,no
1525443821,b2c8a1f85e4777aa667ae397ee4dc29f,Form,21,0,control,NULL,none_chosen,no
1525443821,b2c8a1f85e4777aa667ae397ee4dc29f,Form,21,0,control,NULL,_REACTION_TIME_,1598
1525443821,b2c8a1f85e4777aa667ae397ee4dc29f,Form,15,0,low,NULL,answers_reported,placeholderClassmate 1 says%2C "Cafes A%2C B%2C C%2C D and E."%2CClassmate 2 says%2C "Cafes A and B."%2CClassmate 3 says%2C "Cafe A."
1525443821,b2c8a1f85e4777aa667ae397ee4dc29f,Form,15,0,low,NULL,coffee_classmate_A_chosen,yes
1525443821,b2c8a1f85e4777aa667ae397ee4dc29f,Form,15,0,low,NULL,coffee_classmate_B_chosen,no
1525443821,b2c8a1f85e4777aa667ae397ee4dc29f,Form,15,0,low,NULL,coffee_classmate_C_chosen,no
1525443821,b2c8a1f85e4777aa667ae397ee4dc29f,Form,15,0,low,NULL,no_one_chosen,no
1525443821,b2c8a1f85e4777aa667ae397ee4dc29f,Form,15,0,low,NULL,_REACTION_TIME_,1600
1525443821,b2c8a1f85e4777aa667ae397ee4dc29f,Form,12,0,high,NULL,answers_reported,placeholderInvestigator 1 says%2C "Places A%2C B%2C C%2C D and E."%2CInvestigator 2 says%2C "Place E."%2CInvestigator 3 says%2C "Places D and E."
1525443821,b2c8a1f85e4777aa667ae397ee4dc29f,Form,12,0,high,NULL,fbi_investigator_A_chosen,yes
1525443821,b2c8a1f85e4777aa667ae397ee4dc29f,Form,12,0,high,NULL,fbi_investigator_B_chosen,no
1525443821,b2c8a1f85e4777aa667ae397ee4dc29f,Form,12,0,high,NULL,fbi_investigator_C_chosen,no
1525443821,b2c8a1f85e4777aa667ae397ee4dc29f,Form,12,0,high,NULL,no_one_chosen,no
1525443821,b2c8a1f85e4777aa667ae397ee4dc29f,Form,12,0,high,NULL,_REACTION_TIME_,1654
1525443821,b2c8a1f85e4777aa667ae397ee4dc29f,Form,23,0,nst,NULL,NST_2a_chosen,no
1525443821,b2c8a1f85e4777aa667ae397ee4dc29f,Form,23,0,nst,NULL,NST_2b_chosen,no
1525443821,b2c8a1f85e4777aa667ae397ee4dc29f,Form,23,0,nst,NULL,NST_2c_chosen,no
1525443821,b2c8a1f85e4777aa667ae397ee4dc29f,Form,23,0,nst,NULL,NST_2d_chosen,no
1525443821,b2c8a1f85e4777aa667ae397ee4dc29f,Form,23,0,nst,NULL,NST_2e_chosen,yes
1525443821,b2c8a1f85e4777aa667ae397ee4dc29f,Form,23,0,nst,NULL,_REACTION_TIME_,2274
1525443821,b2c8a1f85e4777aa667ae397ee4dc29f,Form,20,0,control,NULL,when_A_chosen,yes
1525443821,b2c8a1f85e4777aa667ae397ee4dc29f,Form,20,0,control,NULL,when_B_chosen,no
1525443821,b2c8a1f85e4777aa667ae397ee4dc29f,Form,20,0,control,NULL,when_C_chosen,no
1525443821,b2c8a1f85e4777aa667ae397ee4dc29f,Form,20,0,control,NULL,none_chosen,no
1525443821,b2c8a1f85e4777aa667ae397ee4dc29f,Form,20,0,control,NULL,_REACTION_TIME_,1622
1525443821,b2c8a1f85e4777aa667ae397ee4dc29f,Form,6,0,exit_quest,NULL,know_conditons,
1525443821,b2c8a1f85e4777aa667ae397ee4dc29f,Form,6,0,exit_quest,NULL,know_conditons,
1525443821,b2c8a1f85e4777aa667ae397ee4dc29f,Form,6,0,exit_quest,NULL,difficult,
1525443821,b2c8a1f85e4777aa667ae397ee4dc29f,Form,6,0,exit_quest,NULL,anything_else,
1525443821,b2c8a1f85e4777aa667ae397ee4dc29f,Form,6,0,exit_quest,NULL,dummy_checkbox_,yes
1525443821,b2c8a1f85e4777aa667ae397ee4dc29f,Form,6,0,exit_quest,NULL,_REACTION_TIME_,2902
#
# Results on Saturday May 05 2018 10:34:57 UTC.
# USER AGENT: Mozilla/5.0 (iPad; CPU OS 11_3 like Mac OS X) AppleWebKit/605.1.15 (KHTML, like Gecko) Version/11.0 Mobile/15E148 Safari/604.1
# Design number was non-random = 1
#
# Columns below this comment are as follows:
# 1. Time results were received.
# 2. MD5 hash of participant's IP address.
# 3. Controller name.
# 4. Item number.
# 5. Element number.
# 6. Type.
# 7. Group.
# 8. Field name.
# 9. Field value.
1525516498,39b2bdfb4fea3bc067d1ddcaec084164,Form,2,0,consent,NULL,subject_id,A2EED3HLTA96CP
1525516498,39b2bdfb4fea3bc067d1ddcaec084164,Form,2,0,consent,NULL,native_lang,English
1525516498,39b2bdfb4fea3bc067d1ddcaec084164,Form,2,0,consent,NULL,age,61
1525516498,39b2bdfb4fea3bc067d1ddcaec084164,Form,2,0,consent,NULL,consent_checkbox_,yes
1525516498,39b2bdfb4fea3bc067d1ddcaec084164,Form,2,0,consent,NULL,dummy_checkbox_,yes
1525516498,39b2bdfb4fea3bc067d1ddcaec084164,Form,2,0,consent,NULL,sex,male
1525516498,39b2bdfb4fea3bc067d1ddcaec084164,Form,2,0,consent,NULL,_REACTION_TIME_,25407
1525516498,39b2bdfb4fea3bc067d1ddcaec084164,Form,1,0,instructions,NULL,dummy_checkbox_,yes
1525516498,39b2bdfb4fea3bc067d1ddcaec084164,Form,1,0,instructions,NULL,_REACTION_TIME_,6132
1525516498,39b2bdfb4fea3bc067d1ddcaec084164,Form,3,0,train,NULL,train_f_A_chosen,no
1525516498,39b2bdfb4fea3bc067d1ddcaec084164,Form,3,0,train,NULL,train_f_B_chosen,no
1525516498,39b2bdfb4fea3bc067d1ddcaec084164,Form,3,0,train,NULL,train_f_C_chosen,no
1525516498,39b2bdfb4fea3bc067d1ddcaec084164,Form,3,0,train,NULL,none_chosen,yes
1525516498,39b2bdfb4fea3bc067d1ddcaec084164,Form,3,0,train,NULL,_REACTION_TIME_,32519
1525516498,39b2bdfb4fea3bc067d1ddcaec084164,Form,4,0,train,NULL,train_m_A_chosen,no
1525516498,39b2bdfb4fea3bc067d1ddcaec084164,Form,4,0,train,NULL,train_m_B_chosen,no
1525516498,39b2bdfb4fea3bc067d1ddcaec084164,Form,4,0,train,NULL,train_m_C_chosen,yes
1525516498,39b2bdfb4fea3bc067d1ddcaec084164,Form,4,0,train,NULL,none_chosen,no
1525516498,39b2bdfb4fea3bc067d1ddcaec084164,Form,4,0,train,NULL,_REACTION_TIME_,24531
1525516498,39b2bdfb4fea3bc067d1ddcaec084164,Form,5,0,train_end,NULL,dummy_checkbox_,yes
1525516498,39b2bdfb4fea3bc067d1ddcaec084164,Form,5,0,train_end,NULL,_REACTION_TIME_,2416
1525516498,39b2bdfb4fea3bc067d1ddcaec084164,Form,9,0,high,NULL,answers_reported,placeholderFirefighter 1 says%2C "The fourth and fifth floors."%2CFirefighter 2 says%2C "The first floor."%2CFirefighter 3 says%2C "The sixth floor."
1525516498,39b2bdfb4fea3bc067d1ddcaec084164,Form,9,0,high,NULL,firefighter_A_chosen,no
1525516498,39b2bdfb4fea3bc067d1ddcaec084164,Form,9,0,high,NULL,firefighter_B_chosen,no
1525516498,39b2bdfb4fea3bc067d1ddcaec084164,Form,9,0,high,NULL,firefighter_C_chosen,no
1525516498,39b2bdfb4fea3bc067d1ddcaec084164,Form,9,0,high,NULL,no_one_chosen,yes
1525516498,39b2bdfb4fea3bc067d1ddcaec084164,Form,9,0,high,NULL,_REACTION_TIME_,38192
1525516498,39b2bdfb4fea3bc067d1ddcaec084164,Form,13,0,low,NULL,answers_reported,placeholderCousin 1 says%2C "Location F."%2CCousin 2 says%2C "Location E."%2CCousin 3 says%2C "Locations A and B."
1525516498,39b2bdfb4fea3bc067d1ddcaec084164,Form,13,0,low,NULL,pic_cousin_A_chosen,no
1525516498,39b2bdfb4fea3bc067d1ddcaec084164,Form,13,0,low,NULL,pic_cousin_B_chosen,no
1525516498,39b2bdfb4fea3bc067d1ddcaec084164,Form,13,0,low,NULL,pic_cousin_C_chosen,yes
1525516498,39b2bdfb4fea3bc067d1ddcaec084164,Form,13,0,low,NULL,no_one_chosen,no
1525516498,39b2bdfb4fea3bc067d1ddcaec084164,Form,13,0,low,NULL,_REACTION_TIME_,19804
1525516498,39b2bdfb4fea3bc067d1ddcaec084164,Form,25,0,nst,NULL,NST_4a_chosen,no
1525516498,39b2bdfb4fea3bc067d1ddcaec084164,Form,25,0,nst,NULL,NST_4b_chosen,yes
1525516498,39b2bdfb4fea3bc067d1ddcaec084164,Form,25,0,nst,NULL,_REACTION_TIME_,9096
1525516498,39b2bdfb4fea3bc067d1ddcaec084164,Form,8,0,high,NULL,answers_reported,placeholderInspector 1 says%2C "Restaurant E."%2CInspector 2 says%2C "Restaurant A."%2CInspector 3 says%2C "Restaurants A%2C B%2C C%2C D%2C and E."
1525516498,39b2bdfb4fea3bc067d1ddcaec084164,Form,8,0,high,NULL,inspector_A_chosen,no
1525516498,39b2bdfb4fea3bc067d1ddcaec084164,Form,8,0,high,NULL,inspector_B_chosen,no
1525516498,39b2bdfb4fea3bc067d1ddcaec084164,Form,8,0,high,NULL,inspector_C_chosen,yes
1525516498,39b2bdfb4fea3bc067d1ddcaec084164,Form,8,0,high,NULL,no_one_chosen,no
1525516498,39b2bdfb4fea3bc067d1ddcaec084164,Form,8,0,high,NULL,_REACTION_TIME_,19401
1525516498,39b2bdfb4fea3bc067d1ddcaec084164,Form,19,0,control,NULL,what_A_chosen,yes
1525516498,39b2bdfb4fea3bc067d1ddcaec084164,Form,19,0,control,NULL,what_B_chosen,no
1525516498,39b2bdfb4fea3bc067d1ddcaec084164,Form,19,0,control,NULL,what_C_chosen,no
1525516498,39b2bdfb4fea3bc067d1ddcaec084164,Form,19,0,control,NULL,none_chosen,no
1525516498,39b2bdfb4fea3bc067d1ddcaec084164,Form,19,0,control,NULL,_REACTION_TIME_,16308
1525516498,39b2bdfb4fea3bc067d1ddcaec084164,Form,17,0,low,NULL,answers_reported,placeholderBrother 1 says%2C "Stall A."%2CBrother 2 says%2C "Stalls D and E."%2CBrother 3 says%2C "Stall E."
1525516498,39b2bdfb4fea3bc067d1ddcaec084164,Form,17,0,low,NULL,brother_A_chosen,yes
1525516498,39b2bdfb4fea3bc067d1ddcaec084164,Form,17,0,low,NULL,brother_B_chosen,no
1525516498,39b2bdfb4fea3bc067d1ddcaec084164,Form,17,0,low,NULL,brother_C_chosen,no
1525516498,39b2bdfb4fea3bc067d1ddcaec084164,Form,17,0,low,NULL,no_one_chosen,no
1525516498,39b2bdfb4fea3bc067d1ddcaec084164,Form,17,0,low,NULL,_REACTION_TIME_,25606
1525516498,39b2bdfb4fea3bc067d1ddcaec084164,Form,24,0,nst,NULL,NST_3a_chosen,yes
1525516498,39b2bdfb4fea3bc067d1ddcaec084164,Form,24,0,nst,NULL,NST_3b_chosen,no
1525516498,39b2bdfb4fea3bc067d1ddcaec084164,Form,24,0,nst,NULL,NST_3c_chosen,no
1525516498,39b2bdfb4fea3bc067d1ddcaec084164,Form,24,0,nst,NULL,NST_3d_chosen,yes
1525516498,39b2bdfb4fea3bc067d1ddcaec084164,Form,24,0,nst,NULL,NST_3e_chosen,no
1525516498,39b2bdfb4fea3bc067d1ddcaec084164,Form,24,0,nst,NULL,_REACTION_TIME_,13231
1525516498,39b2bdfb4fea3bc067d1ddcaec084164,Form,12,0,high,NULL,answers_reported,placeholderInvestigator 1 says%2C "Places A and B."%2CInvestigator 2 says%2C "Place A."%2CInvestigator 3 says%2C "Place E."
1525516498,39b2bdfb4fea3bc067d1ddcaec084164,Form,12,0,high,NULL,fbi_investigator_A_chosen,yes
1525516498,39b2bdfb4fea3bc067d1ddcaec084164,Form,12,0,high,NULL,fbi_investigator_B_chosen,no
1525516498,39b2bdfb4fea3bc067d1ddcaec084164,Form,12,0,high,NULL,fbi_investigator_C_chosen,no
1525516498,39b2bdfb4fea3bc067d1ddcaec084164,Form,12,0,high,NULL,no_one_chosen,no
1525516498,39b2bdfb4fea3bc067d1ddcaec084164,Form,12,0,high,NULL,_REACTION_TIME_,17087
1525516498,39b2bdfb4fea3bc067d1ddcaec084164,Form,20,0,control,NULL,when_A_chosen,no
1525516498,39b2bdfb4fea3bc067d1ddcaec084164,Form,20,0,control,NULL,when_B_chosen,no
1525516498,39b2bdfb4fea3bc067d1ddcaec084164,Form,20,0,control,NULL,when_C_chosen,yes
1525516498,39b2bdfb4fea3bc067d1ddcaec084164,Form,20,0,control,NULL,none_chosen,no
1525516498,39b2bdfb4fea3bc067d1ddcaec084164,Form,20,0,control,NULL,_REACTION_TIME_,28461
1525516498,39b2bdfb4fea3bc067d1ddcaec084164,Form,14,0,low,NULL,answers_reported,placeholderFriend 1 says%2C "Diner F."%2CFriend 2 says%2C "Diner A."%2CFriend 3 says%2C "Diners A%2C B%2C C%2C D%2C and E."
1525516498,39b2bdfb4fea3bc067d1ddcaec084164,Form,14,0,low,NULL,la_friend_A_chosen,no
1525516498,39b2bdfb4fea3bc067d1ddcaec084164,Form,14,0,low,NULL,la_friend_B_chosen,yes
1525516498,39b2bdfb4fea3bc067d1ddcaec084164,Form,14,0,low,NULL,la_friend_C_chosen,no
1525516498,39b2bdfb4fea3bc067d1ddcaec084164,Form,14,0,low,NULL,no_one_chosen,no
1525516498,39b2bdfb4fea3bc067d1ddcaec084164,Form,14,0,low,NULL,_REACTION_TIME_,16288
1525516498,39b2bdfb4fea3bc067d1ddcaec084164,Form,11,0,high,NULL,answers_reported,placeholderadviser 1 says%2C "Stores A and B."%2Cadviser 2 says%2C "Store E."%2Cadviser 3 says%2C "Store A."
1525516498,39b2bdfb4fea3bc067d1ddcaec084164,Form,11,0,high,NULL,terrorism_adviser_A_chosen,yes
1525516498,39b2bdfb4fea3bc067d1ddcaec084164,Form,11,0,high,NULL,terrorism_adviser_B_chosen,no
1525516498,39b2bdfb4fea3bc067d1ddcaec084164,Form,11,0,high,NULL,terrorism_adviser_C_chosen,no
1525516498,39b2bdfb4fea3bc067d1ddcaec084164,Form,11,0,high,NULL,no_one_chosen,no
1525516498,39b2bdfb4fea3bc067d1ddcaec084164,Form,11,0,high,NULL,_REACTION_TIME_,16230
1525516498,39b2bdfb4fea3bc067d1ddcaec084164,Form,23,0,nst,NULL,NST_2a_chosen,yes
1525516498,39b2bdfb4fea3bc067d1ddcaec084164,Form,23,0,nst,NULL,NST_2b_chosen,yes
1525516498,39b2bdfb4fea3bc067d1ddcaec084164,Form,23,0,nst,NULL,NST_2c_chosen,no
1525516498,39b2bdfb4fea3bc067d1ddcaec084164,Form,23,0,nst,NULL,NST_2d_chosen,no
1525516498,39b2bdfb4fea3bc067d1ddcaec084164,Form,23,0,nst,NULL,NST_2e_chosen,no
1525516498,39b2bdfb4fea3bc067d1ddcaec084164,Form,23,0,nst,NULL,_REACTION_TIME_,11989
1525516498,39b2bdfb4fea3bc067d1ddcaec084164,Form,15,0,low,NULL,answers_reported,placeholderClassmate 1 says%2C "Cafes A and B."%2CClassmate 2 says%2C "Cafe A."%2CClassmate 3 says%2C "Cafes A%2C B%2C C%2C D and E."
1525516498,39b2bdfb4fea3bc067d1ddcaec084164,Form,15,0,low,NULL,coffee_classmate_A_chosen,yes
1525516498,39b2bdfb4fea3bc067d1ddcaec084164,Form,15,0,low,NULL,coffee_classmate_B_chosen,no
1525516498,39b2bdfb4fea3bc067d1ddcaec084164,Form,15,0,low,NULL,coffee_classmate_C_chosen,no
1525516498,39b2bdfb4fea3bc067d1ddcaec084164,Form,15,0,low,NULL,no_one_chosen,no
1525516498,39b2bdfb4fea3bc067d1ddcaec084164,Form,15,0,low,NULL,_REACTION_TIME_,16487
1525516498,39b2bdfb4fea3bc067d1ddcaec084164,Form,21,0,control,NULL,how_guest_A_chosen,no
1525516498,39b2bdfb4fea3bc067d1ddcaec084164,Form,21,0,control,NULL,how_guest_B_chosen,no
1525516498,39b2bdfb4fea3bc067d1ddcaec084164,Form,21,0,control,NULL,how_guest_C_chosen,yes
1525516498,39b2bdfb4fea3bc067d1ddcaec084164,Form,21,0,control,NULL,none_chosen,no
1525516498,39b2bdfb4fea3bc067d1ddcaec084164,Form,21,0,control,NULL,_REACTION_TIME_,28552
1525516498,39b2bdfb4fea3bc067d1ddcaec084164,Form,10,0,high,NULL,answers_reported,placeholderOperative 1 says%2C "The North district."%2COperative 2 says%2C "The South and North districts."%2COperative 3 says%2C "The Northeast and Southwest districts."
1525516498,39b2bdfb4fea3bc067d1ddcaec084164,Form,10,0,high,NULL,operative_A_chosen,no
1525516498,39b2bdfb4fea3bc067d1ddcaec084164,Form,10,0,high,NULL,operative_B_chosen,no
1525516498,39b2bdfb4fea3bc067d1ddcaec084164,Form,10,0,high,NULL,operative_C_chosen,yes
1525516498,39b2bdfb4fea3bc067d1ddcaec084164,Form,10,0,high,NULL,no_one_chosen,no
1525516498,39b2bdfb4fea3bc067d1ddcaec084164,Form,10,0,high,NULL,_REACTION_TIME_,21551
1525516498,39b2bdfb4fea3bc067d1ddcaec084164,Form,16,0,low,NULL,answers_reported,placeholderCoworker 1 says%2C "Studios D and E."%2CCoworker 2 says%2C "Studios A and B."%2CCoworker 3 says%2C "Studio A."
1525516498,39b2bdfb4fea3bc067d1ddcaec084164,Form,16,0,low,NULL,yoga_coworker_A_chosen,no
1525516498,39b2bdfb4fea3bc067d1ddcaec084164,Form,16,0,low,NULL,yoga_coworker_B_chosen,yes
1525516498,39b2bdfb4fea3bc067d1ddcaec084164,Form,16,0,low,NULL,yoga_coworker_C_chosen,no
1525516498,39b2bdfb4fea3bc067d1ddcaec084164,Form,16,0,low,NULL,no_one_chosen,no
1525516498,39b2bdfb4fea3bc067d1ddcaec084164,Form,16,0,low,NULL,_REACTION_TIME_,17445
1525516498,39b2bdfb4fea3bc067d1ddcaec084164,Form,22,0,nst,NULL,NST_1a_chosen,yes
1525516498,39b2bdfb4fea3bc067d1ddcaec084164,Form,22,0,nst,NULL,NST_1b_chosen,no
1525516498,39b2bdfb4fea3bc067d1ddcaec084164,Form,22,0,nst,NULL,NST_1c_chosen,no
1525516498,39b2bdfb4fea3bc067d1ddcaec084164,Form,22,0,nst,NULL,NST_1d_chosen,yes
1525516498,39b2bdfb4fea3bc067d1ddcaec084164,Form,22,0,nst,NULL,_REACTION_TIME_,9328
1525516498,39b2bdfb4fea3bc067d1ddcaec084164,Form,18,0,control,NULL,why_A_chosen,yes
1525516498,39b2bdfb4fea3bc067d1ddcaec084164,Form,18,0,control,NULL,why_B_chosen,no
1525516498,39b2bdfb4fea3bc067d1ddcaec084164,Form,18,0,control,NULL,why_C_chosen,no
1525516498,39b2bdfb4fea3bc067d1ddcaec084164,Form,18,0,control,NULL,none_chosen,no
1525516498,39b2bdfb4fea3bc067d1ddcaec084164,Form,18,0,control,NULL,_REACTION_TIME_,13515
1525516498,39b2bdfb4fea3bc067d1ddcaec084164,Form,6,0,exit_quest,NULL,know_conditons,In the cabinet. 
1525516498,39b2bdfb4fea3bc067d1ddcaec084164,Form,6,0,exit_quest,NULL,know_conditons,In the supermarket. 
1525516498,39b2bdfb4fea3bc067d1ddcaec084164,Form,6,0,exit_quest,NULL,difficult,Very easy%2C the answers were in the story. Some judgement was required in determining the best relative answer. 
1525516498,39b2bdfb4fea3bc067d1ddcaec084164,Form,6,0,exit_quest,NULL,anything_else,No
1525516498,39b2bdfb4fea3bc067d1ddcaec084164,Form,6,0,exit_quest,NULL,dummy_checkbox_,yes
1525516498,39b2bdfb4fea3bc067d1ddcaec084164,Form,6,0,exit_quest,NULL,_REACTION_TIME_,96081
#
# Results on Saturday May 05 2018 10:35:43 UTC.
# USER AGENT: Mozilla/5.0 (Macintosh; Intel Mac OS X 10_11_6) AppleWebKit/537.36 (KHTML, like Gecko) Chrome/66.0.3359.139 Safari/537.36
# Design number was non-random = 1
#
# Columns below this comment are as follows:
# 1. Time results were received.
# 2. MD5 hash of participant's IP address.
# 3. Controller name.
# 4. Item number.
# 5. Element number.
# 6. Type.
# 7. Group.
# 8. Field name.
# 9. Field value.
1525516544,7a87475064b523fa49eac99e5c3c2bd2,Form,2,0,consent,NULL,subject_id,A331FP9YQ5E06Z
1525516544,7a87475064b523fa49eac99e5c3c2bd2,Form,2,0,consent,NULL,native_lang,English
1525516544,7a87475064b523fa49eac99e5c3c2bd2,Form,2,0,consent,NULL,age,26
1525516544,7a87475064b523fa49eac99e5c3c2bd2,Form,2,0,consent,NULL,consent_checkbox_,yes
1525516544,7a87475064b523fa49eac99e5c3c2bd2,Form,2,0,consent,NULL,dummy_checkbox_,yes
1525516544,7a87475064b523fa49eac99e5c3c2bd2,Form,2,0,consent,NULL,sex,male
1525516544,7a87475064b523fa49eac99e5c3c2bd2,Form,2,0,consent,NULL,_REACTION_TIME_,42892
1525516544,7a87475064b523fa49eac99e5c3c2bd2,Form,1,0,instructions,NULL,dummy_checkbox_,yes
1525516544,7a87475064b523fa49eac99e5c3c2bd2,Form,1,0,instructions,NULL,_REACTION_TIME_,8417
1525516544,7a87475064b523fa49eac99e5c3c2bd2,Form,4,0,train,NULL,train_m_A_chosen,no
1525516544,7a87475064b523fa49eac99e5c3c2bd2,Form,4,0,train,NULL,train_m_B_chosen,yes
1525516544,7a87475064b523fa49eac99e5c3c2bd2,Form,4,0,train,NULL,train_m_C_chosen,yes
1525516544,7a87475064b523fa49eac99e5c3c2bd2,Form,4,0,train,NULL,none_chosen,no
1525516544,7a87475064b523fa49eac99e5c3c2bd2,Form,4,0,train,NULL,_REACTION_TIME_,34417
1525516544,7a87475064b523fa49eac99e5c3c2bd2,Form,3,0,train,NULL,train_f_A_chosen,no
1525516544,7a87475064b523fa49eac99e5c3c2bd2,Form,3,0,train,NULL,train_f_B_chosen,no
1525516544,7a87475064b523fa49eac99e5c3c2bd2,Form,3,0,train,NULL,train_f_C_chosen,no
1525516544,7a87475064b523fa49eac99e5c3c2bd2,Form,3,0,train,NULL,none_chosen,yes
1525516544,7a87475064b523fa49eac99e5c3c2bd2,Form,3,0,train,NULL,_REACTION_TIME_,26634
1525516544,7a87475064b523fa49eac99e5c3c2bd2,Form,5,0,train_end,NULL,dummy_checkbox_,yes
1525516544,7a87475064b523fa49eac99e5c3c2bd2,Form,5,0,train_end,NULL,_REACTION_TIME_,2426
1525516544,7a87475064b523fa49eac99e5c3c2bd2,Form,14,0,low,NULL,answers_reported,placeholderFriend 1 says%2C "Diner E."%2CFriend 2 says%2C "Diner A."%2CFriend 3 says%2C "Diners D and E."
1525516544,7a87475064b523fa49eac99e5c3c2bd2,Form,14,0,low,NULL,la_friend_A_chosen,no
1525516544,7a87475064b523fa49eac99e5c3c2bd2,Form,14,0,low,NULL,la_friend_B_chosen,yes
1525516544,7a87475064b523fa49eac99e5c3c2bd2,Form,14,0,low,NULL,la_friend_C_chosen,no
1525516544,7a87475064b523fa49eac99e5c3c2bd2,Form,14,0,low,NULL,no_one_chosen,no
1525516544,7a87475064b523fa49eac99e5c3c2bd2,Form,14,0,low,NULL,_REACTION_TIME_,27330
1525516544,7a87475064b523fa49eac99e5c3c2bd2,Form,8,0,high,NULL,answers_reported,placeholderInspector 1 says%2C "Restaurant E."%2CInspector 2 says%2C "Restaurants A and B."%2CInspector 3 says%2C "Restaurants A%2C B%2C C%2C D%2C and E."
1525516544,7a87475064b523fa49eac99e5c3c2bd2,Form,8,0,high,NULL,inspector_A_chosen,no
1525516544,7a87475064b523fa49eac99e5c3c2bd2,Form,8,0,high,NULL,inspector_B_chosen,no
1525516544,7a87475064b523fa49eac99e5c3c2bd2,Form,8,0,high,NULL,inspector_C_chosen,yes
1525516544,7a87475064b523fa49eac99e5c3c2bd2,Form,8,0,high,NULL,no_one_chosen,no
1525516544,7a87475064b523fa49eac99e5c3c2bd2,Form,8,0,high,NULL,_REACTION_TIME_,26764
1525516544,7a87475064b523fa49eac99e5c3c2bd2,Form,19,0,control,NULL,what_A_chosen,yes
1525516544,7a87475064b523fa49eac99e5c3c2bd2,Form,19,0,control,NULL,what_B_chosen,no
1525516544,7a87475064b523fa49eac99e5c3c2bd2,Form,19,0,control,NULL,what_C_chosen,no
1525516544,7a87475064b523fa49eac99e5c3c2bd2,Form,19,0,control,NULL,none_chosen,no
1525516544,7a87475064b523fa49eac99e5c3c2bd2,Form,19,0,control,NULL,_REACTION_TIME_,21282
1525516544,7a87475064b523fa49eac99e5c3c2bd2,Form,15,0,low,NULL,answers_reported,placeholderClassmate 1 says%2C "Cafes A and B."%2CClassmate 2 says%2C "Cafes A%2C B%2C C%2C D and E."%2CClassmate 3 says%2C "Cafe E."
1525516544,7a87475064b523fa49eac99e5c3c2bd2,Form,15,0,low,NULL,coffee_classmate_A_chosen,no
1525516544,7a87475064b523fa49eac99e5c3c2bd2,Form,15,0,low,NULL,coffee_classmate_B_chosen,no
1525516544,7a87475064b523fa49eac99e5c3c2bd2,Form,15,0,low,NULL,coffee_classmate_C_chosen,no
1525516544,7a87475064b523fa49eac99e5c3c2bd2,Form,15,0,low,NULL,no_one_chosen,yes
1525516544,7a87475064b523fa49eac99e5c3c2bd2,Form,15,0,low,NULL,_REACTION_TIME_,14256
1525516544,7a87475064b523fa49eac99e5c3c2bd2,Form,23,0,nst,NULL,NST_2a_chosen,yes
1525516544,7a87475064b523fa49eac99e5c3c2bd2,Form,23,0,nst,NULL,NST_2b_chosen,no
1525516544,7a87475064b523fa49eac99e5c3c2bd2,Form,23,0,nst,NULL,NST_2c_chosen,no
1525516544,7a87475064b523fa49eac99e5c3c2bd2,Form,23,0,nst,NULL,NST_2d_chosen,no
1525516544,7a87475064b523fa49eac99e5c3c2bd2,Form,23,0,nst,NULL,NST_2e_chosen,no
1525516544,7a87475064b523fa49eac99e5c3c2bd2,Form,23,0,nst,NULL,_REACTION_TIME_,16616
1525516544,7a87475064b523fa49eac99e5c3c2bd2,Form,9,0,high,NULL,answers_reported,placeholderFirefighter 1 says%2C "The first floor."%2CFirefighter 2 says%2C "The first and second floors."%2CFirefighter 3 says%2C "The fourth and fifth floors."
1525516544,7a87475064b523fa49eac99e5c3c2bd2,Form,9,0,high,NULL,firefighter_A_chosen,no
1525516544,7a87475064b523fa49eac99e5c3c2bd2,Form,9,0,high,NULL,firefighter_B_chosen,no
1525516544,7a87475064b523fa49eac99e5c3c2bd2,Form,9,0,high,NULL,firefighter_C_chosen,no
1525516544,7a87475064b523fa49eac99e5c3c2bd2,Form,9,0,high,NULL,no_one_chosen,yes
1525516544,7a87475064b523fa49eac99e5c3c2bd2,Form,9,0,high,NULL,_REACTION_TIME_,26154
1525516544,7a87475064b523fa49eac99e5c3c2bd2,Form,18,0,control,NULL,why_A_chosen,yes
1525516544,7a87475064b523fa49eac99e5c3c2bd2,Form,18,0,control,NULL,why_B_chosen,yes
1525516544,7a87475064b523fa49eac99e5c3c2bd2,Form,18,0,control,NULL,why_C_chosen,no
1525516544,7a87475064b523fa49eac99e5c3c2bd2,Form,18,0,control,NULL,none_chosen,no
1525516544,7a87475064b523fa49eac99e5c3c2bd2,Form,18,0,control,NULL,_REACTION_TIME_,19232
1525516544,7a87475064b523fa49eac99e5c3c2bd2,Form,13,0,low,NULL,answers_reported,placeholderCousin 1 says%2C "Locations A and B."%2CCousin 2 says%2C "Location F."%2CCousin 3 says%2C "Locations D and E."
1525516544,7a87475064b523fa49eac99e5c3c2bd2,Form,13,0,low,NULL,pic_cousin_A_chosen,yes
1525516544,7a87475064b523fa49eac99e5c3c2bd2,Form,13,0,low,NULL,pic_cousin_B_chosen,no
1525516544,7a87475064b523fa49eac99e5c3c2bd2,Form,13,0,low,NULL,pic_cousin_C_chosen,no
1525516544,7a87475064b523fa49eac99e5c3c2bd2,Form,13,0,low,NULL,no_one_chosen,no
1525516544,7a87475064b523fa49eac99e5c3c2bd2,Form,13,0,low,NULL,_REACTION_TIME_,18285
1525516544,7a87475064b523fa49eac99e5c3c2bd2,Form,22,0,nst,NULL,NST_1a_chosen,yes
1525516544,7a87475064b523fa49eac99e5c3c2bd2,Form,22,0,nst,NULL,NST_1b_chosen,no
1525516544,7a87475064b523fa49eac99e5c3c2bd2,Form,22,0,nst,NULL,NST_1c_chosen,no
1525516544,7a87475064b523fa49eac99e5c3c2bd2,Form,22,0,nst,NULL,NST_1d_chosen,yes
1525516544,7a87475064b523fa49eac99e5c3c2bd2,Form,22,0,nst,NULL,_REACTION_TIME_,11457
1525516544,7a87475064b523fa49eac99e5c3c2bd2,Form,11,0,high,NULL,answers_reported,placeholderadviser 1 says%2C "Stores D and E."%2Cadviser 2 says%2C "Store A."%2Cadviser 3 says%2C "Store E."
1525516544,7a87475064b523fa49eac99e5c3c2bd2,Form,11,0,high,NULL,terrorism_adviser_A_chosen,no
1525516544,7a87475064b523fa49eac99e5c3c2bd2,Form,11,0,high,NULL,terrorism_adviser_B_chosen,yes
1525516544,7a87475064b523fa49eac99e5c3c2bd2,Form,11,0,high,NULL,terrorism_adviser_C_chosen,no
1525516544,7a87475064b523fa49eac99e5c3c2bd2,Form,11,0,high,NULL,no_one_chosen,no
1525516544,7a87475064b523fa49eac99e5c3c2bd2,Form,11,0,high,NULL,_REACTION_TIME_,17978
1525516544,7a87475064b523fa49eac99e5c3c2bd2,Form,16,0,low,NULL,answers_reported,placeholderCoworker 1 says%2C "Studio F."%2CCoworker 2 says%2C "Studios A%2C B%2C C%2C D and E."%2CCoworker 3 says%2C "Studios D and E."
1525516544,7a87475064b523fa49eac99e5c3c2bd2,Form,16,0,low,NULL,yoga_coworker_A_chosen,no
1525516544,7a87475064b523fa49eac99e5c3c2bd2,Form,16,0,low,NULL,yoga_coworker_B_chosen,no
1525516544,7a87475064b523fa49eac99e5c3c2bd2,Form,16,0,low,NULL,yoga_coworker_C_chosen,no
1525516544,7a87475064b523fa49eac99e5c3c2bd2,Form,16,0,low,NULL,no_one_chosen,yes
1525516544,7a87475064b523fa49eac99e5c3c2bd2,Form,16,0,low,NULL,_REACTION_TIME_,16717
1525516544,7a87475064b523fa49eac99e5c3c2bd2,Form,21,0,control,NULL,how_guest_A_chosen,no
1525516544,7a87475064b523fa49eac99e5c3c2bd2,Form,21,0,control,NULL,how_guest_B_chosen,no
1525516544,7a87475064b523fa49eac99e5c3c2bd2,Form,21,0,control,NULL,how_guest_C_chosen,yes
1525516544,7a87475064b523fa49eac99e5c3c2bd2,Form,21,0,control,NULL,none_chosen,no
1525516544,7a87475064b523fa49eac99e5c3c2bd2,Form,21,0,control,NULL,_REACTION_TIME_,39635
1525516544,7a87475064b523fa49eac99e5c3c2bd2,Form,10,0,high,NULL,answers_reported,placeholderOperative 1 says%2C "The Northeast district."%2COperative 2 says%2C "The South and North districts."%2COperative 3 says%2C "The Northeast and Southwest districts."
1525516544,7a87475064b523fa49eac99e5c3c2bd2,Form,10,0,high,NULL,operative_A_chosen,yes
1525516544,7a87475064b523fa49eac99e5c3c2bd2,Form,10,0,high,NULL,operative_B_chosen,no
1525516544,7a87475064b523fa49eac99e5c3c2bd2,Form,10,0,high,NULL,operative_C_chosen,yes
1525516544,7a87475064b523fa49eac99e5c3c2bd2,Form,10,0,high,NULL,no_one_chosen,no
1525516544,7a87475064b523fa49eac99e5c3c2bd2,Form,10,0,high,NULL,_REACTION_TIME_,26480
1525516544,7a87475064b523fa49eac99e5c3c2bd2,Form,24,0,nst,NULL,NST_3a_chosen,yes
1525516544,7a87475064b523fa49eac99e5c3c2bd2,Form,24,0,nst,NULL,NST_3b_chosen,no
1525516544,7a87475064b523fa49eac99e5c3c2bd2,Form,24,0,nst,NULL,NST_3c_chosen,no
1525516544,7a87475064b523fa49eac99e5c3c2bd2,Form,24,0,nst,NULL,NST_3d_chosen,no
1525516544,7a87475064b523fa49eac99e5c3c2bd2,Form,24,0,nst,NULL,NST_3e_chosen,no
1525516544,7a87475064b523fa49eac99e5c3c2bd2,Form,24,0,nst,NULL,_REACTION_TIME_,12943
1525516544,7a87475064b523fa49eac99e5c3c2bd2,Form,17,0,low,NULL,answers_reported,placeholderBrother 1 says%2C "Stalls A%2C B%2C C%2C D and E."%2CBrother 2 says%2C "Stalls D and E."%2CBrother 3 says%2C "Stalls A and B."
1525516544,7a87475064b523fa49eac99e5c3c2bd2,Form,17,0,low,NULL,brother_A_chosen,no
1525516544,7a87475064b523fa49eac99e5c3c2bd2,Form,17,0,low,NULL,brother_B_chosen,no
1525516544,7a87475064b523fa49eac99e5c3c2bd2,Form,17,0,low,NULL,brother_C_chosen,yes
1525516544,7a87475064b523fa49eac99e5c3c2bd2,Form,17,0,low,NULL,no_one_chosen,no
1525516544,7a87475064b523fa49eac99e5c3c2bd2,Form,17,0,low,NULL,_REACTION_TIME_,13312
1525516544,7a87475064b523fa49eac99e5c3c2bd2,Form,12,0,high,NULL,answers_reported,placeholderInvestigator 1 says%2C "Places A and B."%2CInvestigator 2 says%2C "Place E."%2CInvestigator 3 says%2C "Places A%2C B%2C C%2C D and E."
1525516544,7a87475064b523fa49eac99e5c3c2bd2,Form,12,0,high,NULL,fbi_investigator_A_chosen,yes
1525516544,7a87475064b523fa49eac99e5c3c2bd2,Form,12,0,high,NULL,fbi_investigator_B_chosen,no
1525516544,7a87475064b523fa49eac99e5c3c2bd2,Form,12,0,high,NULL,fbi_investigator_C_chosen,no
1525516544,7a87475064b523fa49eac99e5c3c2bd2,Form,12,0,high,NULL,no_one_chosen,no
1525516544,7a87475064b523fa49eac99e5c3c2bd2,Form,12,0,high,NULL,_REACTION_TIME_,14859
1525516544,7a87475064b523fa49eac99e5c3c2bd2,Form,20,0,control,NULL,when_A_chosen,no
1525516544,7a87475064b523fa49eac99e5c3c2bd2,Form,20,0,control,NULL,when_B_chosen,no
1525516544,7a87475064b523fa49eac99e5c3c2bd2,Form,20,0,control,NULL,when_C_chosen,no
1525516544,7a87475064b523fa49eac99e5c3c2bd2,Form,20,0,control,NULL,none_chosen,yes
1525516544,7a87475064b523fa49eac99e5c3c2bd2,Form,20,0,control,NULL,_REACTION_TIME_,14037
1525516544,7a87475064b523fa49eac99e5c3c2bd2,Form,25,0,nst,NULL,NST_4a_chosen,no
1525516544,7a87475064b523fa49eac99e5c3c2bd2,Form,25,0,nst,NULL,NST_4b_chosen,yes
1525516544,7a87475064b523fa49eac99e5c3c2bd2,Form,25,0,nst,NULL,_REACTION_TIME_,5844
1525516544,7a87475064b523fa49eac99e5c3c2bd2,Form,6,0,exit_quest,NULL,know_conditons,From the coffee shop
1525516544,7a87475064b523fa49eac99e5c3c2bd2,Form,6,0,exit_quest,NULL,know_conditons,A coffee shop
1525516544,7a87475064b523fa49eac99e5c3c2bd2,Form,6,0,exit_quest,NULL,difficult,No.  Fairly straightforward questions and not complicated language
1525516544,7a87475064b523fa49eac99e5c3c2bd2,Form,6,0,exit_quest,NULL,anything_else,
1525516544,7a87475064b523fa49eac99e5c3c2bd2,Form,6,0,exit_quest,NULL,dummy_checkbox_,yes
1525516544,7a87475064b523fa49eac99e5c3c2bd2,Form,6,0,exit_quest,NULL,_REACTION_TIME_,36764
#
# Results on Saturday May 05 2018 10:36:03 UTC.
# USER AGENT: Mozilla/5.0 (Windows NT 10.0; Win64; x64) AppleWebKit/537.36 (KHTML, like Gecko) Chrome/66.0.3359.139 Safari/537.36
# Design number was non-random = 1
#
# Columns below this comment are as follows:
# 1. Time results were received.
# 2. MD5 hash of participant's IP address.
# 3. Controller name.
# 4. Item number.
# 5. Element number.
# 6. Type.
# 7. Group.
# 8. Field name.
# 9. Field value.
1525516564,4d8fbe0d9c07ad802f7741f19a146903,Form,2,0,consent,NULL,subject_id,A2Z3VYYYAIOGHC
1525516564,4d8fbe0d9c07ad802f7741f19a146903,Form,2,0,consent,NULL,native_lang,English
1525516564,4d8fbe0d9c07ad802f7741f19a146903,Form,2,0,consent,NULL,age,28
1525516564,4d8fbe0d9c07ad802f7741f19a146903,Form,2,0,consent,NULL,consent_checkbox_,yes
1525516564,4d8fbe0d9c07ad802f7741f19a146903,Form,2,0,consent,NULL,dummy_checkbox_,yes
1525516564,4d8fbe0d9c07ad802f7741f19a146903,Form,2,0,consent,NULL,sex,male
1525516564,4d8fbe0d9c07ad802f7741f19a146903,Form,2,0,consent,NULL,_REACTION_TIME_,20103
1525516564,4d8fbe0d9c07ad802f7741f19a146903,Form,1,0,instructions,NULL,dummy_checkbox_,yes
1525516564,4d8fbe0d9c07ad802f7741f19a146903,Form,1,0,instructions,NULL,_REACTION_TIME_,9490
1525516564,4d8fbe0d9c07ad802f7741f19a146903,Form,4,0,train,NULL,train_m_A_chosen,no
1525516564,4d8fbe0d9c07ad802f7741f19a146903,Form,4,0,train,NULL,train_m_B_chosen,no
1525516564,4d8fbe0d9c07ad802f7741f19a146903,Form,4,0,train,NULL,train_m_C_chosen,yes
1525516564,4d8fbe0d9c07ad802f7741f19a146903,Form,4,0,train,NULL,none_chosen,no
1525516564,4d8fbe0d9c07ad802f7741f19a146903,Form,4,0,train,NULL,_REACTION_TIME_,16088
1525516564,4d8fbe0d9c07ad802f7741f19a146903,Form,3,0,train,NULL,train_f_A_chosen,no
1525516564,4d8fbe0d9c07ad802f7741f19a146903,Form,3,0,train,NULL,train_f_B_chosen,no
1525516564,4d8fbe0d9c07ad802f7741f19a146903,Form,3,0,train,NULL,train_f_C_chosen,no
1525516564,4d8fbe0d9c07ad802f7741f19a146903,Form,3,0,train,NULL,none_chosen,yes
1525516564,4d8fbe0d9c07ad802f7741f19a146903,Form,3,0,train,NULL,_REACTION_TIME_,30876
1525516564,4d8fbe0d9c07ad802f7741f19a146903,Form,5,0,train_end,NULL,dummy_checkbox_,yes
1525516564,4d8fbe0d9c07ad802f7741f19a146903,Form,5,0,train_end,NULL,_REACTION_TIME_,1865
1525516564,4d8fbe0d9c07ad802f7741f19a146903,Form,15,0,low,NULL,answers_reported,placeholderClassmate 1 says%2C "Cafes A and B."%2CClassmate 2 says%2C "Cafes D and E."%2CClassmate 3 says%2C "Cafe E."
1525516564,4d8fbe0d9c07ad802f7741f19a146903,Form,15,0,low,NULL,coffee_classmate_A_chosen,yes
1525516564,4d8fbe0d9c07ad802f7741f19a146903,Form,15,0,low,NULL,coffee_classmate_B_chosen,no
1525516564,4d8fbe0d9c07ad802f7741f19a146903,Form,15,0,low,NULL,coffee_classmate_C_chosen,no
1525516564,4d8fbe0d9c07ad802f7741f19a146903,Form,15,0,low,NULL,no_one_chosen,no
1525516564,4d8fbe0d9c07ad802f7741f19a146903,Form,15,0,low,NULL,_REACTION_TIME_,25505
1525516564,4d8fbe0d9c07ad802f7741f19a146903,Form,11,0,high,NULL,answers_reported,placeholderadviser 1 says%2C "Store F."%2Cadviser 2 says%2C "Stores D and E."%2Cadviser 3 says%2C "Store E."
1525516564,4d8fbe0d9c07ad802f7741f19a146903,Form,11,0,high,NULL,terrorism_adviser_A_chosen,no
1525516564,4d8fbe0d9c07ad802f7741f19a146903,Form,11,0,high,NULL,terrorism_adviser_B_chosen,yes
1525516564,4d8fbe0d9c07ad802f7741f19a146903,Form,11,0,high,NULL,terrorism_adviser_C_chosen,no
1525516564,4d8fbe0d9c07ad802f7741f19a146903,Form,11,0,high,NULL,no_one_chosen,no
1525516564,4d8fbe0d9c07ad802f7741f19a146903,Form,11,0,high,NULL,_REACTION_TIME_,63553
1525516564,4d8fbe0d9c07ad802f7741f19a146903,Form,14,0,low,NULL,answers_reported,placeholderFriend 1 says%2C "Diners A and B."%2CFriend 2 says%2C "Diner E."%2CFriend 3 says%2C "Diner A."
1525516564,4d8fbe0d9c07ad802f7741f19a146903,Form,14,0,low,NULL,la_friend_A_chosen,no
1525516564,4d8fbe0d9c07ad802f7741f19a146903,Form,14,0,low,NULL,la_friend_B_chosen,no
1525516564,4d8fbe0d9c07ad802f7741f19a146903,Form,14,0,low,NULL,la_friend_C_chosen,yes
1525516564,4d8fbe0d9c07ad802f7741f19a146903,Form,14,0,low,NULL,no_one_chosen,no
1525516564,4d8fbe0d9c07ad802f7741f19a146903,Form,14,0,low,NULL,_REACTION_TIME_,19000
1525516564,4d8fbe0d9c07ad802f7741f19a146903,Form,20,0,control,NULL,when_A_chosen,no
1525516564,4d8fbe0d9c07ad802f7741f19a146903,Form,20,0,control,NULL,when_B_chosen,yes
1525516564,4d8fbe0d9c07ad802f7741f19a146903,Form,20,0,control,NULL,when_C_chosen,no
1525516564,4d8fbe0d9c07ad802f7741f19a146903,Form,20,0,control,NULL,none_chosen,no
1525516564,4d8fbe0d9c07ad802f7741f19a146903,Form,20,0,control,NULL,_REACTION_TIME_,25910
1525516564,4d8fbe0d9c07ad802f7741f19a146903,Form,23,0,nst,NULL,NST_2a_chosen,yes
1525516564,4d8fbe0d9c07ad802f7741f19a146903,Form,23,0,nst,NULL,NST_2b_chosen,no
1525516564,4d8fbe0d9c07ad802f7741f19a146903,Form,23,0,nst,NULL,NST_2c_chosen,no
1525516564,4d8fbe0d9c07ad802f7741f19a146903,Form,23,0,nst,NULL,NST_2d_chosen,no
1525516564,4d8fbe0d9c07ad802f7741f19a146903,Form,23,0,nst,NULL,NST_2e_chosen,no
1525516564,4d8fbe0d9c07ad802f7741f19a146903,Form,23,0,nst,NULL,_REACTION_TIME_,23786
1525516564,4d8fbe0d9c07ad802f7741f19a146903,Form,9,0,high,NULL,answers_reported,placeholderFirefighter 1 says%2C "The fourth and fifth floors."%2CFirefighter 2 says%2C "The first%2C second%2C third%2C fourth and fifth floors."%2CFirefighter 3 says%2C "The first and second floors."
1525516564,4d8fbe0d9c07ad802f7741f19a146903,Form,9,0,high,NULL,firefighter_A_chosen,no
1525516564,4d8fbe0d9c07ad802f7741f19a146903,Form,9,0,high,NULL,firefighter_B_chosen,no
1525516564,4d8fbe0d9c07ad802f7741f19a146903,Form,9,0,high,NULL,firefighter_C_chosen,yes
1525516564,4d8fbe0d9c07ad802f7741f19a146903,Form,9,0,high,NULL,no_one_chosen,no
1525516564,4d8fbe0d9c07ad802f7741f19a146903,Form,9,0,high,NULL,_REACTION_TIME_,18943
1525516564,4d8fbe0d9c07ad802f7741f19a146903,Form,16,0,low,NULL,answers_reported,placeholderCoworker 1 says%2C "Studios A and B."%2CCoworker 2 says%2C "Studio E."%2CCoworker 3 says%2C "Studio F."
1525516564,4d8fbe0d9c07ad802f7741f19a146903,Form,16,0,low,NULL,yoga_coworker_A_chosen,yes
1525516564,4d8fbe0d9c07ad802f7741f19a146903,Form,16,0,low,NULL,yoga_coworker_B_chosen,no
1525516564,4d8fbe0d9c07ad802f7741f19a146903,Form,16,0,low,NULL,yoga_coworker_C_chosen,no
1525516564,4d8fbe0d9c07ad802f7741f19a146903,Form,16,0,low,NULL,no_one_chosen,no
1525516564,4d8fbe0d9c07ad802f7741f19a146903,Form,16,0,low,NULL,_REACTION_TIME_,14210
1525516564,4d8fbe0d9c07ad802f7741f19a146903,Form,19,0,control,NULL,what_A_chosen,yes
1525516564,4d8fbe0d9c07ad802f7741f19a146903,Form,19,0,control,NULL,what_B_chosen,no
1525516564,4d8fbe0d9c07ad802f7741f19a146903,Form,19,0,control,NULL,what_C_chosen,no
1525516564,4d8fbe0d9c07ad802f7741f19a146903,Form,19,0,control,NULL,none_chosen,no
1525516564,4d8fbe0d9c07ad802f7741f19a146903,Form,19,0,control,NULL,_REACTION_TIME_,24593
1525516564,4d8fbe0d9c07ad802f7741f19a146903,Form,22,0,nst,NULL,NST_1a_chosen,yes
1525516564,4d8fbe0d9c07ad802f7741f19a146903,Form,22,0,nst,NULL,NST_1b_chosen,no
1525516564,4d8fbe0d9c07ad802f7741f19a146903,Form,22,0,nst,NULL,NST_1c_chosen,no
1525516564,4d8fbe0d9c07ad802f7741f19a146903,Form,22,0,nst,NULL,NST_1d_chosen,yes
1525516564,4d8fbe0d9c07ad802f7741f19a146903,Form,22,0,nst,NULL,_REACTION_TIME_,11985
1525516564,4d8fbe0d9c07ad802f7741f19a146903,Form,12,0,high,NULL,answers_reported,placeholderInvestigator 1 says%2C "Place F."%2CInvestigator 2 says%2C "Places A and B."%2CInvestigator 3 says%2C "Place A."
1525516564,4d8fbe0d9c07ad802f7741f19a146903,Form,12,0,high,NULL,fbi_investigator_A_chosen,no
1525516564,4d8fbe0d9c07ad802f7741f19a146903,Form,12,0,high,NULL,fbi_investigator_B_chosen,yes
1525516564,4d8fbe0d9c07ad802f7741f19a146903,Form,12,0,high,NULL,fbi_investigator_C_chosen,no
1525516564,4d8fbe0d9c07ad802f7741f19a146903,Form,12,0,high,NULL,no_one_chosen,no
1525516564,4d8fbe0d9c07ad802f7741f19a146903,Form,12,0,high,NULL,_REACTION_TIME_,16035
1525516564,4d8fbe0d9c07ad802f7741f19a146903,Form,13,0,low,NULL,answers_reported,placeholderCousin 1 says%2C "Location A."%2CCousin 2 says%2C "Locations A and B."%2CCousin 3 says%2C "Location E."
1525516564,4d8fbe0d9c07ad802f7741f19a146903,Form,13,0,low,NULL,pic_cousin_A_chosen,no
1525516564,4d8fbe0d9c07ad802f7741f19a146903,Form,13,0,low,NULL,pic_cousin_B_chosen,yes
1525516564,4d8fbe0d9c07ad802f7741f19a146903,Form,13,0,low,NULL,pic_cousin_C_chosen,no
1525516564,4d8fbe0d9c07ad802f7741f19a146903,Form,13,0,low,NULL,no_one_chosen,no
1525516564,4d8fbe0d9c07ad802f7741f19a146903,Form,13,0,low,NULL,_REACTION_TIME_,6200
1525516564,4d8fbe0d9c07ad802f7741f19a146903,Form,8,0,high,NULL,answers_reported,placeholderInspector 1 says%2C "Restaurants A and B."%2CInspector 2 says%2C "Restaurants C and E."%2CInspector 3 says%2C "Restaurant E."
1525516564,4d8fbe0d9c07ad802f7741f19a146903,Form,8,0,high,NULL,inspector_A_chosen,yes
1525516564,4d8fbe0d9c07ad802f7741f19a146903,Form,8,0,high,NULL,inspector_B_chosen,no
1525516564,4d8fbe0d9c07ad802f7741f19a146903,Form,8,0,high,NULL,inspector_C_chosen,no
1525516564,4d8fbe0d9c07ad802f7741f19a146903,Form,8,0,high,NULL,no_one_chosen,no
1525516564,4d8fbe0d9c07ad802f7741f19a146903,Form,8,0,high,NULL,_REACTION_TIME_,7855
1525516564,4d8fbe0d9c07ad802f7741f19a146903,Form,18,0,control,NULL,why_A_chosen,yes
1525516564,4d8fbe0d9c07ad802f7741f19a146903,Form,18,0,control,NULL,why_B_chosen,no
1525516564,4d8fbe0d9c07ad802f7741f19a146903,Form,18,0,control,NULL,why_C_chosen,no
1525516564,4d8fbe0d9c07ad802f7741f19a146903,Form,18,0,control,NULL,none_chosen,no
1525516564,4d8fbe0d9c07ad802f7741f19a146903,Form,18,0,control,NULL,_REACTION_TIME_,7790
1525516564,4d8fbe0d9c07ad802f7741f19a146903,Form,25,0,nst,NULL,NST_4a_chosen,no
1525516564,4d8fbe0d9c07ad802f7741f19a146903,Form,25,0,nst,NULL,NST_4b_chosen,yes
1525516564,4d8fbe0d9c07ad802f7741f19a146903,Form,25,0,nst,NULL,_REACTION_TIME_,4930
1525516564,4d8fbe0d9c07ad802f7741f19a146903,Form,17,0,low,NULL,answers_reported,placeholderBrother 1 says%2C "Stall F."%2CBrother 2 says%2C "Stalls A%2C B%2C C%2C D and E."%2CBrother 3 says%2C "Stalls D and E."
1525516564,4d8fbe0d9c07ad802f7741f19a146903,Form,17,0,low,NULL,brother_A_chosen,no
1525516564,4d8fbe0d9c07ad802f7741f19a146903,Form,17,0,low,NULL,brother_B_chosen,no
1525516564,4d8fbe0d9c07ad802f7741f19a146903,Form,17,0,low,NULL,brother_C_chosen,no
1525516564,4d8fbe0d9c07ad802f7741f19a146903,Form,17,0,low,NULL,no_one_chosen,yes
1525516564,4d8fbe0d9c07ad802f7741f19a146903,Form,17,0,low,NULL,_REACTION_TIME_,18624
1525516564,4d8fbe0d9c07ad802f7741f19a146903,Form,10,0,high,NULL,answers_reported,placeholderOperative 1 says%2C "The South and North districts."%2COperative 2 says%2C "The North district."%2COperative 3 says%2C "The Northeast district."
1525516564,4d8fbe0d9c07ad802f7741f19a146903,Form,10,0,high,NULL,operative_A_chosen,no
1525516564,4d8fbe0d9c07ad802f7741f19a146903,Form,10,0,high,NULL,operative_B_chosen,no
1525516564,4d8fbe0d9c07ad802f7741f19a146903,Form,10,0,high,NULL,operative_C_chosen,no
1525516564,4d8fbe0d9c07ad802f7741f19a146903,Form,10,0,high,NULL,no_one_chosen,yes
1525516564,4d8fbe0d9c07ad802f7741f19a146903,Form,10,0,high,NULL,_REACTION_TIME_,24826
1525516564,4d8fbe0d9c07ad802f7741f19a146903,Form,21,0,control,NULL,how_guest_A_chosen,yes
1525516564,4d8fbe0d9c07ad802f7741f19a146903,Form,21,0,control,NULL,how_guest_B_chosen,no
1525516564,4d8fbe0d9c07ad802f7741f19a146903,Form,21,0,control,NULL,how_guest_C_chosen,no
1525516564,4d8fbe0d9c07ad802f7741f19a146903,Form,21,0,control,NULL,none_chosen,no
1525516564,4d8fbe0d9c07ad802f7741f19a146903,Form,21,0,control,NULL,_REACTION_TIME_,16310
1525516564,4d8fbe0d9c07ad802f7741f19a146903,Form,24,0,nst,NULL,NST_3a_chosen,yes
1525516564,4d8fbe0d9c07ad802f7741f19a146903,Form,24,0,nst,NULL,NST_3b_chosen,yes
1525516564,4d8fbe0d9c07ad802f7741f19a146903,Form,24,0,nst,NULL,NST_3c_chosen,no
1525516564,4d8fbe0d9c07ad802f7741f19a146903,Form,24,0,nst,NULL,NST_3d_chosen,yes
1525516564,4d8fbe0d9c07ad802f7741f19a146903,Form,24,0,nst,NULL,NST_3e_chosen,no
1525516564,4d8fbe0d9c07ad802f7741f19a146903,Form,24,0,nst,NULL,_REACTION_TIME_,13841
1525516564,4d8fbe0d9c07ad802f7741f19a146903,Form,6,0,exit_quest,NULL,know_conditons,At the coffee shop.
1525516564,4d8fbe0d9c07ad802f7741f19a146903,Form,6,0,exit_quest,NULL,know_conditons,At the grocery store
1525516564,4d8fbe0d9c07ad802f7741f19a146903,Form,6,0,exit_quest,NULL,difficult,No%2C it was fairly straightforward. 
1525516564,4d8fbe0d9c07ad802f7741f19a146903,Form,6,0,exit_quest,NULL,anything_else,Thank you!
1525516564,4d8fbe0d9c07ad802f7741f19a146903,Form,6,0,exit_quest,NULL,dummy_checkbox_,yes
1525516564,4d8fbe0d9c07ad802f7741f19a146903,Form,6,0,exit_quest,NULL,_REACTION_TIME_,37962
#
# Results on Saturday May 05 2018 10:37:03 UTC.
# USER AGENT: Mozilla/5.0 (Windows NT 6.1; Win64; x64) AppleWebKit/537.36 (KHTML, like Gecko) Chrome/66.0.3359.139 Safari/537.36
# Design number was non-random = 1
#
# Columns below this comment are as follows:
# 1. Time results were received.
# 2. MD5 hash of participant's IP address.
# 3. Controller name.
# 4. Item number.
# 5. Element number.
# 6. Type.
# 7. Group.
# 8. Field name.
# 9. Field value.
1525516623,af1131570780f46039f28a180d3f7a8e,Form,2,0,consent,NULL,subject_id,A1PZIN8H1VI6SY
1525516623,af1131570780f46039f28a180d3f7a8e,Form,2,0,consent,NULL,native_lang,english
1525516623,af1131570780f46039f28a180d3f7a8e,Form,2,0,consent,NULL,age,39
1525516623,af1131570780f46039f28a180d3f7a8e,Form,2,0,consent,NULL,consent_checkbox_,yes
1525516623,af1131570780f46039f28a180d3f7a8e,Form,2,0,consent,NULL,dummy_checkbox_,yes
1525516623,af1131570780f46039f28a180d3f7a8e,Form,2,0,consent,NULL,sex,male
1525516623,af1131570780f46039f28a180d3f7a8e,Form,2,0,consent,NULL,_REACTION_TIME_,36880
1525516623,af1131570780f46039f28a180d3f7a8e,Form,1,0,instructions,NULL,dummy_checkbox_,yes
1525516623,af1131570780f46039f28a180d3f7a8e,Form,1,0,instructions,NULL,_REACTION_TIME_,7824
1525516623,af1131570780f46039f28a180d3f7a8e,Form,3,0,train,NULL,train_f_A_chosen,no
1525516623,af1131570780f46039f28a180d3f7a8e,Form,3,0,train,NULL,train_f_B_chosen,yes
1525516623,af1131570780f46039f28a180d3f7a8e,Form,3,0,train,NULL,train_f_C_chosen,yes
1525516623,af1131570780f46039f28a180d3f7a8e,Form,3,0,train,NULL,none_chosen,no
1525516623,af1131570780f46039f28a180d3f7a8e,Form,3,0,train,NULL,_REACTION_TIME_,42718
1525516623,af1131570780f46039f28a180d3f7a8e,Form,4,0,train,NULL,train_m_A_chosen,no
1525516623,af1131570780f46039f28a180d3f7a8e,Form,4,0,train,NULL,train_m_B_chosen,no
1525516623,af1131570780f46039f28a180d3f7a8e,Form,4,0,train,NULL,train_m_C_chosen,yes
1525516623,af1131570780f46039f28a180d3f7a8e,Form,4,0,train,NULL,none_chosen,no
1525516623,af1131570780f46039f28a180d3f7a8e,Form,4,0,train,NULL,_REACTION_TIME_,42548
1525516623,af1131570780f46039f28a180d3f7a8e,Form,5,0,train_end,NULL,dummy_checkbox_,yes
1525516623,af1131570780f46039f28a180d3f7a8e,Form,5,0,train_end,NULL,_REACTION_TIME_,3133
1525516623,af1131570780f46039f28a180d3f7a8e,Form,14,0,low,NULL,answers_reported,placeholderFriend 1 says%2C "Diners A and B."%2CFriend 2 says%2C "Diner E."%2CFriend 3 says%2C "Diners D and E."
1525516623,af1131570780f46039f28a180d3f7a8e,Form,14,0,low,NULL,la_friend_A_chosen,yes
1525516623,af1131570780f46039f28a180d3f7a8e,Form,14,0,low,NULL,la_friend_B_chosen,yes
1525516623,af1131570780f46039f28a180d3f7a8e,Form,14,0,low,NULL,la_friend_C_chosen,no
1525516623,af1131570780f46039f28a180d3f7a8e,Form,14,0,low,NULL,no_one_chosen,no
1525516623,af1131570780f46039f28a180d3f7a8e,Form,14,0,low,NULL,_REACTION_TIME_,45141
1525516623,af1131570780f46039f28a180d3f7a8e,Form,11,0,high,NULL,answers_reported,placeholderadviser 1 says%2C "Stores A%2C B%2C C%2C D%2C and E."%2Cadviser 2 says%2C "Stores D and E."%2Cadviser 3 says%2C "Store E."
1525516623,af1131570780f46039f28a180d3f7a8e,Form,11,0,high,NULL,terrorism_adviser_A_chosen,no
1525516623,af1131570780f46039f28a180d3f7a8e,Form,11,0,high,NULL,terrorism_adviser_B_chosen,no
1525516623,af1131570780f46039f28a180d3f7a8e,Form,11,0,high,NULL,terrorism_adviser_C_chosen,yes
1525516623,af1131570780f46039f28a180d3f7a8e,Form,11,0,high,NULL,no_one_chosen,no
1525516623,af1131570780f46039f28a180d3f7a8e,Form,11,0,high,NULL,_REACTION_TIME_,9163
1525516623,af1131570780f46039f28a180d3f7a8e,Form,24,0,nst,NULL,NST_3a_chosen,no
1525516623,af1131570780f46039f28a180d3f7a8e,Form,24,0,nst,NULL,NST_3b_chosen,no
1525516623,af1131570780f46039f28a180d3f7a8e,Form,24,0,nst,NULL,NST_3c_chosen,yes
1525516623,af1131570780f46039f28a180d3f7a8e,Form,24,0,nst,NULL,NST_3d_chosen,no
1525516623,af1131570780f46039f28a180d3f7a8e,Form,24,0,nst,NULL,NST_3e_chosen,no
1525516623,af1131570780f46039f28a180d3f7a8e,Form,24,0,nst,NULL,_REACTION_TIME_,15379
1525516623,af1131570780f46039f28a180d3f7a8e,Form,19,0,control,NULL,what_A_chosen,no
1525516623,af1131570780f46039f28a180d3f7a8e,Form,19,0,control,NULL,what_B_chosen,yes
1525516623,af1131570780f46039f28a180d3f7a8e,Form,19,0,control,NULL,what_C_chosen,no
1525516623,af1131570780f46039f28a180d3f7a8e,Form,19,0,control,NULL,none_chosen,no
1525516623,af1131570780f46039f28a180d3f7a8e,Form,19,0,control,NULL,_REACTION_TIME_,31569
1525516623,af1131570780f46039f28a180d3f7a8e,Form,16,0,low,NULL,answers_reported,placeholderCoworker 1 says%2C "Studios D and E."%2CCoworker 2 says%2C "Studio F."%2CCoworker 3 says%2C "Studio E."
1525516623,af1131570780f46039f28a180d3f7a8e,Form,16,0,low,NULL,yoga_coworker_A_chosen,no
1525516623,af1131570780f46039f28a180d3f7a8e,Form,16,0,low,NULL,yoga_coworker_B_chosen,no
1525516623,af1131570780f46039f28a180d3f7a8e,Form,16,0,low,NULL,yoga_coworker_C_chosen,no
1525516623,af1131570780f46039f28a180d3f7a8e,Form,16,0,low,NULL,no_one_chosen,yes
1525516623,af1131570780f46039f28a180d3f7a8e,Form,16,0,low,NULL,_REACTION_TIME_,35555
1525516623,af1131570780f46039f28a180d3f7a8e,Form,10,0,high,NULL,answers_reported,placeholderOperative 1 says%2C "The Northeast and Southwest districts."%2COperative 2 says%2C "The South and North districts."%2COperative 3 says%2C "The Northeast%2C Southwest%2C South%2C Southeast and North districts."
1525516623,af1131570780f46039f28a180d3f7a8e,Form,10,0,high,NULL,operative_A_chosen,no
1525516623,af1131570780f46039f28a180d3f7a8e,Form,10,0,high,NULL,operative_B_chosen,yes
1525516623,af1131570780f46039f28a180d3f7a8e,Form,10,0,high,NULL,operative_C_chosen,no
1525516623,af1131570780f46039f28a180d3f7a8e,Form,10,0,high,NULL,no_one_chosen,no
1525516623,af1131570780f46039f28a180d3f7a8e,Form,10,0,high,NULL,_REACTION_TIME_,19755
1525516623,af1131570780f46039f28a180d3f7a8e,Form,23,0,nst,NULL,NST_2a_chosen,no
1525516623,af1131570780f46039f28a180d3f7a8e,Form,23,0,nst,NULL,NST_2b_chosen,no
1525516623,af1131570780f46039f28a180d3f7a8e,Form,23,0,nst,NULL,NST_2c_chosen,yes
1525516623,af1131570780f46039f28a180d3f7a8e,Form,23,0,nst,NULL,NST_2d_chosen,no
1525516623,af1131570780f46039f28a180d3f7a8e,Form,23,0,nst,NULL,NST_2e_chosen,no
1525516623,af1131570780f46039f28a180d3f7a8e,Form,23,0,nst,NULL,_REACTION_TIME_,26031
1525516623,af1131570780f46039f28a180d3f7a8e,Form,21,0,control,NULL,how_guest_A_chosen,no
1525516623,af1131570780f46039f28a180d3f7a8e,Form,21,0,control,NULL,how_guest_B_chosen,yes
1525516623,af1131570780f46039f28a180d3f7a8e,Form,21,0,control,NULL,how_guest_C_chosen,no
1525516623,af1131570780f46039f28a180d3f7a8e,Form,21,0,control,NULL,none_chosen,no
1525516623,af1131570780f46039f28a180d3f7a8e,Form,21,0,control,NULL,_REACTION_TIME_,4701
1525516623,af1131570780f46039f28a180d3f7a8e,Form,17,0,low,NULL,answers_reported,placeholderBrother 1 says%2C "Stall E."%2CBrother 2 says%2C "Stalls D and E."%2CBrother 3 says%2C "Stall F."
1525516623,af1131570780f46039f28a180d3f7a8e,Form,17,0,low,NULL,brother_A_chosen,no
1525516623,af1131570780f46039f28a180d3f7a8e,Form,17,0,low,NULL,brother_B_chosen,no
1525516623,af1131570780f46039f28a180d3f7a8e,Form,17,0,low,NULL,brother_C_chosen,yes
1525516623,af1131570780f46039f28a180d3f7a8e,Form,17,0,low,NULL,no_one_chosen,no
1525516623,af1131570780f46039f28a180d3f7a8e,Form,17,0,low,NULL,_REACTION_TIME_,5236
1525516623,af1131570780f46039f28a180d3f7a8e,Form,12,0,high,NULL,answers_reported,placeholderInvestigator 1 says%2C "Place A."%2CInvestigator 2 says%2C "Place E."%2CInvestigator 3 says%2C "Places D and E."
1525516623,af1131570780f46039f28a180d3f7a8e,Form,12,0,high,NULL,fbi_investigator_A_chosen,no
1525516623,af1131570780f46039f28a180d3f7a8e,Form,12,0,high,NULL,fbi_investigator_B_chosen,yes
1525516623,af1131570780f46039f28a180d3f7a8e,Form,12,0,high,NULL,fbi_investigator_C_chosen,no
1525516623,af1131570780f46039f28a180d3f7a8e,Form,12,0,high,NULL,no_one_chosen,no
1525516623,af1131570780f46039f28a180d3f7a8e,Form,12,0,high,NULL,_REACTION_TIME_,3819
1525516623,af1131570780f46039f28a180d3f7a8e,Form,15,0,low,NULL,answers_reported,placeholderClassmate 1 says%2C "Cafes A and B."%2CClassmate 2 says%2C "Cafes D and E."%2CClassmate 3 says%2C "Cafe F."
1525516623,af1131570780f46039f28a180d3f7a8e,Form,15,0,low,NULL,coffee_classmate_A_chosen,no
1525516623,af1131570780f46039f28a180d3f7a8e,Form,15,0,low,NULL,coffee_classmate_B_chosen,no
1525516623,af1131570780f46039f28a180d3f7a8e,Form,15,0,low,NULL,coffee_classmate_C_chosen,yes
1525516623,af1131570780f46039f28a180d3f7a8e,Form,15,0,low,NULL,no_one_chosen,no
1525516623,af1131570780f46039f28a180d3f7a8e,Form,15,0,low,NULL,_REACTION_TIME_,2803
1525516623,af1131570780f46039f28a180d3f7a8e,Form,22,0,nst,NULL,NST_1a_chosen,no
1525516623,af1131570780f46039f28a180d3f7a8e,Form,22,0,nst,NULL,NST_1b_chosen,yes
1525516623,af1131570780f46039f28a180d3f7a8e,Form,22,0,nst,NULL,NST_1c_chosen,no
1525516623,af1131570780f46039f28a180d3f7a8e,Form,22,0,nst,NULL,NST_1d_chosen,no
1525516623,af1131570780f46039f28a180d3f7a8e,Form,22,0,nst,NULL,_REACTION_TIME_,12126
1525516623,af1131570780f46039f28a180d3f7a8e,Form,20,0,control,NULL,when_A_chosen,no
1525516623,af1131570780f46039f28a180d3f7a8e,Form,20,0,control,NULL,when_B_chosen,no
1525516623,af1131570780f46039f28a180d3f7a8e,Form,20,0,control,NULL,when_C_chosen,yes
1525516623,af1131570780f46039f28a180d3f7a8e,Form,20,0,control,NULL,none_chosen,no
1525516623,af1131570780f46039f28a180d3f7a8e,Form,20,0,control,NULL,_REACTION_TIME_,4012
1525516623,af1131570780f46039f28a180d3f7a8e,Form,9,0,high,NULL,answers_reported,placeholderFirefighter 1 says%2C "The first%2C second%2C third%2C fourth and fifth floors."%2CFirefighter 2 says%2C "The fourth and fifth floors."%2CFirefighter 3 says%2C "The fifth floor."
1525516623,af1131570780f46039f28a180d3f7a8e,Form,9,0,high,NULL,firefighter_A_chosen,no
1525516623,af1131570780f46039f28a180d3f7a8e,Form,9,0,high,NULL,firefighter_B_chosen,yes
1525516623,af1131570780f46039f28a180d3f7a8e,Form,9,0,high,NULL,firefighter_C_chosen,no
1525516623,af1131570780f46039f28a180d3f7a8e,Form,9,0,high,NULL,no_one_chosen,no
1525516623,af1131570780f46039f28a180d3f7a8e,Form,9,0,high,NULL,_REACTION_TIME_,4107
1525516623,af1131570780f46039f28a180d3f7a8e,Form,13,0,low,NULL,answers_reported,placeholderCousin 1 says%2C "Locations A%2C B%2C C%2C D%2C and E."%2CCousin 2 says%2C "Locations A and B."%2CCousin 3 says%2C "Locations D and E."
1525516623,af1131570780f46039f28a180d3f7a8e,Form,13,0,low,NULL,pic_cousin_A_chosen,yes
1525516623,af1131570780f46039f28a180d3f7a8e,Form,13,0,low,NULL,pic_cousin_B_chosen,yes
1525516623,af1131570780f46039f28a180d3f7a8e,Form,13,0,low,NULL,pic_cousin_C_chosen,no
1525516623,af1131570780f46039f28a180d3f7a8e,Form,13,0,low,NULL,no_one_chosen,no
1525516623,af1131570780f46039f28a180d3f7a8e,Form,13,0,low,NULL,_REACTION_TIME_,7108
1525516623,af1131570780f46039f28a180d3f7a8e,Form,8,0,high,NULL,answers_reported,placeholderInspector 1 says%2C "Restaurants A and B."%2CInspector 2 says%2C "Restaurant E."%2CInspector 3 says%2C "Restaurant A."
1525516623,af1131570780f46039f28a180d3f7a8e,Form,8,0,high,NULL,inspector_A_chosen,no
1525516623,af1131570780f46039f28a180d3f7a8e,Form,8,0,high,NULL,inspector_B_chosen,yes
1525516623,af1131570780f46039f28a180d3f7a8e,Form,8,0,high,NULL,inspector_C_chosen,no
1525516623,af1131570780f46039f28a180d3f7a8e,Form,8,0,high,NULL,no_one_chosen,no
1525516623,af1131570780f46039f28a180d3f7a8e,Form,8,0,high,NULL,_REACTION_TIME_,6393
1525516623,af1131570780f46039f28a180d3f7a8e,Form,25,0,nst,NULL,NST_4a_chosen,yes
1525516623,af1131570780f46039f28a180d3f7a8e,Form,25,0,nst,NULL,NST_4b_chosen,no
1525516623,af1131570780f46039f28a180d3f7a8e,Form,25,0,nst,NULL,_REACTION_TIME_,58677
1525516623,af1131570780f46039f28a180d3f7a8e,Form,18,0,control,NULL,why_A_chosen,no
1525516623,af1131570780f46039f28a180d3f7a8e,Form,18,0,control,NULL,why_B_chosen,yes
1525516623,af1131570780f46039f28a180d3f7a8e,Form,18,0,control,NULL,why_C_chosen,no
1525516623,af1131570780f46039f28a180d3f7a8e,Form,18,0,control,NULL,none_chosen,no
1525516623,af1131570780f46039f28a180d3f7a8e,Form,18,0,control,NULL,_REACTION_TIME_,2446
1525516623,af1131570780f46039f28a180d3f7a8e,Form,6,0,exit_quest,NULL,know_conditons,at the coffe shop
1525516623,af1131570780f46039f28a180d3f7a8e,Form,6,0,exit_quest,NULL,know_conditons,in the coffe shop
1525516623,af1131570780f46039f28a180d3f7a8e,Form,6,0,exit_quest,NULL,difficult,very easy
1525516623,af1131570780f46039f28a180d3f7a8e,Form,6,0,exit_quest,NULL,anything_else,very good survey
1525516623,af1131570780f46039f28a180d3f7a8e,Form,6,0,exit_quest,NULL,dummy_checkbox_,yes
1525516623,af1131570780f46039f28a180d3f7a8e,Form,6,0,exit_quest,NULL,_REACTION_TIME_,52362
#
# Results on Saturday May 05 2018 10:37:30 UTC.
# USER AGENT: Mozilla/5.0 (X11; CrOS x86_64 10323.67.0) AppleWebKit/537.36 (KHTML, like Gecko) Chrome/65.0.3325.209 Safari/537.36
# Design number was non-random = 1
#
# Columns below this comment are as follows:
# 1. Time results were received.
# 2. MD5 hash of participant's IP address.
# 3. Controller name.
# 4. Item number.
# 5. Element number.
# 6. Type.
# 7. Group.
# 8. Field name.
# 9. Field value.
1525516650,b48a2fef186de9965dc9d86aea1a82d1,Form,2,0,consent,NULL,subject_id,A1NITMHYG5YL3H
1525516650,b48a2fef186de9965dc9d86aea1a82d1,Form,2,0,consent,NULL,native_lang,English
1525516650,b48a2fef186de9965dc9d86aea1a82d1,Form,2,0,consent,NULL,age,35
1525516650,b48a2fef186de9965dc9d86aea1a82d1,Form,2,0,consent,NULL,consent_checkbox_,no
1525516650,b48a2fef186de9965dc9d86aea1a82d1,Form,2,0,consent,NULL,dummy_checkbox_,yes
1525516650,b48a2fef186de9965dc9d86aea1a82d1,Form,2,0,consent,NULL,sex,male
1525516650,b48a2fef186de9965dc9d86aea1a82d1,Form,2,0,consent,NULL,_REACTION_TIME_,19919
1525516650,b48a2fef186de9965dc9d86aea1a82d1,Form,1,0,instructions,NULL,dummy_checkbox_,yes
1525516650,b48a2fef186de9965dc9d86aea1a82d1,Form,1,0,instructions,NULL,_REACTION_TIME_,18825
1525516650,b48a2fef186de9965dc9d86aea1a82d1,Form,4,0,train,NULL,train_m_A_chosen,no
1525516650,b48a2fef186de9965dc9d86aea1a82d1,Form,4,0,train,NULL,train_m_B_chosen,no
1525516650,b48a2fef186de9965dc9d86aea1a82d1,Form,4,0,train,NULL,train_m_C_chosen,yes
1525516650,b48a2fef186de9965dc9d86aea1a82d1,Form,4,0,train,NULL,none_chosen,no
1525516650,b48a2fef186de9965dc9d86aea1a82d1,Form,4,0,train,NULL,_REACTION_TIME_,21773
1525516650,b48a2fef186de9965dc9d86aea1a82d1,Form,3,0,train,NULL,train_f_A_chosen,no
1525516650,b48a2fef186de9965dc9d86aea1a82d1,Form,3,0,train,NULL,train_f_B_chosen,no
1525516650,b48a2fef186de9965dc9d86aea1a82d1,Form,3,0,train,NULL,train_f_C_chosen,no
1525516650,b48a2fef186de9965dc9d86aea1a82d1,Form,3,0,train,NULL,none_chosen,yes
1525516650,b48a2fef186de9965dc9d86aea1a82d1,Form,3,0,train,NULL,_REACTION_TIME_,26048
1525516650,b48a2fef186de9965dc9d86aea1a82d1,Form,5,0,train_end,NULL,dummy_checkbox_,yes
1525516650,b48a2fef186de9965dc9d86aea1a82d1,Form,5,0,train_end,NULL,_REACTION_TIME_,1708
1525516650,b48a2fef186de9965dc9d86aea1a82d1,Form,11,0,high,NULL,answers_reported,placeholderadviser 1 says%2C "Store A."%2Cadviser 2 says%2C "Store E."%2Cadviser 3 says%2C "Store F."
1525516650,b48a2fef186de9965dc9d86aea1a82d1,Form,11,0,high,NULL,terrorism_adviser_A_chosen,yes
1525516650,b48a2fef186de9965dc9d86aea1a82d1,Form,11,0,high,NULL,terrorism_adviser_B_chosen,no
1525516650,b48a2fef186de9965dc9d86aea1a82d1,Form,11,0,high,NULL,terrorism_adviser_C_chosen,no
1525516650,b48a2fef186de9965dc9d86aea1a82d1,Form,11,0,high,NULL,no_one_chosen,no
1525516650,b48a2fef186de9965dc9d86aea1a82d1,Form,11,0,high,NULL,_REACTION_TIME_,37990
1525516650,b48a2fef186de9965dc9d86aea1a82d1,Form,15,0,low,NULL,answers_reported,placeholderClassmate 1 says%2C "Cafe F."%2CClassmate 2 says%2C "Cafes A and B."%2CClassmate 3 says%2C "Cafes D and E."
1525516650,b48a2fef186de9965dc9d86aea1a82d1,Form,15,0,low,NULL,coffee_classmate_A_chosen,no
1525516650,b48a2fef186de9965dc9d86aea1a82d1,Form,15,0,low,NULL,coffee_classmate_B_chosen,yes
1525516650,b48a2fef186de9965dc9d86aea1a82d1,Form,15,0,low,NULL,coffee_classmate_C_chosen,no
1525516650,b48a2fef186de9965dc9d86aea1a82d1,Form,15,0,low,NULL,no_one_chosen,no
1525516650,b48a2fef186de9965dc9d86aea1a82d1,Form,15,0,low,NULL,_REACTION_TIME_,48064
1525516650,b48a2fef186de9965dc9d86aea1a82d1,Form,19,0,control,NULL,what_A_chosen,yes
1525516650,b48a2fef186de9965dc9d86aea1a82d1,Form,19,0,control,NULL,what_B_chosen,no
1525516650,b48a2fef186de9965dc9d86aea1a82d1,Form,19,0,control,NULL,what_C_chosen,no
1525516650,b48a2fef186de9965dc9d86aea1a82d1,Form,19,0,control,NULL,none_chosen,no
1525516650,b48a2fef186de9965dc9d86aea1a82d1,Form,19,0,control,NULL,_REACTION_TIME_,15513
1525516650,b48a2fef186de9965dc9d86aea1a82d1,Form,22,0,nst,NULL,NST_1a_chosen,yes
1525516650,b48a2fef186de9965dc9d86aea1a82d1,Form,22,0,nst,NULL,NST_1b_chosen,no
1525516650,b48a2fef186de9965dc9d86aea1a82d1,Form,22,0,nst,NULL,NST_1c_chosen,no
1525516650,b48a2fef186de9965dc9d86aea1a82d1,Form,22,0,nst,NULL,NST_1d_chosen,yes
1525516650,b48a2fef186de9965dc9d86aea1a82d1,Form,22,0,nst,NULL,_REACTION_TIME_,15668
1525516650,b48a2fef186de9965dc9d86aea1a82d1,Form,10,0,high,NULL,answers_reported,placeholderOperative 1 says%2C "The Northeast%2C Southwest%2C South%2C Southeast and North districts."%2COperative 2 says%2C "The North district."%2COperative 3 says%2C "The Northeast and Southwest districts."
1525516650,b48a2fef186de9965dc9d86aea1a82d1,Form,10,0,high,NULL,operative_A_chosen,yes
1525516650,b48a2fef186de9965dc9d86aea1a82d1,Form,10,0,high,NULL,operative_B_chosen,no
1525516650,b48a2fef186de9965dc9d86aea1a82d1,Form,10,0,high,NULL,operative_C_chosen,no
1525516650,b48a2fef186de9965dc9d86aea1a82d1,Form,10,0,high,NULL,no_one_chosen,no
1525516650,b48a2fef186de9965dc9d86aea1a82d1,Form,10,0,high,NULL,_REACTION_TIME_,20209
1525516650,b48a2fef186de9965dc9d86aea1a82d1,Form,13,0,low,NULL,answers_reported,placeholderCousin 1 says%2C "Location F."%2CCousin 2 says%2C "Location A."%2CCousin 3 says%2C "Locations A and B."
1525516650,b48a2fef186de9965dc9d86aea1a82d1,Form,13,0,low,NULL,pic_cousin_A_chosen,no
1525516650,b48a2fef186de9965dc9d86aea1a82d1,Form,13,0,low,NULL,pic_cousin_B_chosen,yes
1525516650,b48a2fef186de9965dc9d86aea1a82d1,Form,13,0,low,NULL,pic_cousin_C_chosen,yes
1525516650,b48a2fef186de9965dc9d86aea1a82d1,Form,13,0,low,NULL,no_one_chosen,no
1525516650,b48a2fef186de9965dc9d86aea1a82d1,Form,13,0,low,NULL,_REACTION_TIME_,23472
1525516650,b48a2fef186de9965dc9d86aea1a82d1,Form,20,0,control,NULL,when_A_chosen,no
1525516650,b48a2fef186de9965dc9d86aea1a82d1,Form,20,0,control,NULL,when_B_chosen,yes
1525516650,b48a2fef186de9965dc9d86aea1a82d1,Form,20,0,control,NULL,when_C_chosen,no
1525516650,b48a2fef186de9965dc9d86aea1a82d1,Form,20,0,control,NULL,none_chosen,no
1525516650,b48a2fef186de9965dc9d86aea1a82d1,Form,20,0,control,NULL,_REACTION_TIME_,11899
1525516650,b48a2fef186de9965dc9d86aea1a82d1,Form,23,0,nst,NULL,NST_2a_chosen,yes
1525516650,b48a2fef186de9965dc9d86aea1a82d1,Form,23,0,nst,NULL,NST_2b_chosen,yes
1525516650,b48a2fef186de9965dc9d86aea1a82d1,Form,23,0,nst,NULL,NST_2c_chosen,no
1525516650,b48a2fef186de9965dc9d86aea1a82d1,Form,23,0,nst,NULL,NST_2d_chosen,no
1525516650,b48a2fef186de9965dc9d86aea1a82d1,Form,23,0,nst,NULL,NST_2e_chosen,no
1525516650,b48a2fef186de9965dc9d86aea1a82d1,Form,23,0,nst,NULL,_REACTION_TIME_,24776
1525516650,b48a2fef186de9965dc9d86aea1a82d1,Form,8,0,high,NULL,answers_reported,placeholderInspector 1 says%2C "Restaurant A."%2CInspector 2 says%2C "Restaurants C and E."%2CInspector 3 says%2C "Restaurants A and B."
1525516650,b48a2fef186de9965dc9d86aea1a82d1,Form,8,0,high,NULL,inspector_A_chosen,no
1525516650,b48a2fef186de9965dc9d86aea1a82d1,Form,8,0,high,NULL,inspector_B_chosen,no
1525516650,b48a2fef186de9965dc9d86aea1a82d1,Form,8,0,high,NULL,inspector_C_chosen,yes
1525516650,b48a2fef186de9965dc9d86aea1a82d1,Form,8,0,high,NULL,no_one_chosen,no
1525516650,b48a2fef186de9965dc9d86aea1a82d1,Form,8,0,high,NULL,_REACTION_TIME_,85412
1525516650,b48a2fef186de9965dc9d86aea1a82d1,Form,14,0,low,NULL,answers_reported,placeholderFriend 1 says%2C "Diner A."%2CFriend 2 says%2C "Diner E."%2CFriend 3 says%2C "Diners A and B."
1525516650,b48a2fef186de9965dc9d86aea1a82d1,Form,14,0,low,NULL,la_friend_A_chosen,no
1525516650,b48a2fef186de9965dc9d86aea1a82d1,Form,14,0,low,NULL,la_friend_B_chosen,no
1525516650,b48a2fef186de9965dc9d86aea1a82d1,Form,14,0,low,NULL,la_friend_C_chosen,yes
1525516650,b48a2fef186de9965dc9d86aea1a82d1,Form,14,0,low,NULL,no_one_chosen,no
1525516650,b48a2fef186de9965dc9d86aea1a82d1,Form,14,0,low,NULL,_REACTION_TIME_,15491
1525516650,b48a2fef186de9965dc9d86aea1a82d1,Form,12,0,high,NULL,answers_reported,placeholderInvestigator 1 says%2C "Places D and E."%2CInvestigator 2 says%2C "Place E."%2CInvestigator 3 says%2C "Places A and B."
1525516650,b48a2fef186de9965dc9d86aea1a82d1,Form,12,0,high,NULL,fbi_investigator_A_chosen,no
1525516650,b48a2fef186de9965dc9d86aea1a82d1,Form,12,0,high,NULL,fbi_investigator_B_chosen,no
1525516650,b48a2fef186de9965dc9d86aea1a82d1,Form,12,0,high,NULL,fbi_investigator_C_chosen,yes
1525516650,b48a2fef186de9965dc9d86aea1a82d1,Form,12,0,high,NULL,no_one_chosen,no
1525516650,b48a2fef186de9965dc9d86aea1a82d1,Form,12,0,high,NULL,_REACTION_TIME_,7280
1525516650,b48a2fef186de9965dc9d86aea1a82d1,Form,18,0,control,NULL,why_A_chosen,yes
1525516650,b48a2fef186de9965dc9d86aea1a82d1,Form,18,0,control,NULL,why_B_chosen,no
1525516650,b48a2fef186de9965dc9d86aea1a82d1,Form,18,0,control,NULL,why_C_chosen,no
1525516650,b48a2fef186de9965dc9d86aea1a82d1,Form,18,0,control,NULL,none_chosen,no
1525516650,b48a2fef186de9965dc9d86aea1a82d1,Form,18,0,control,NULL,_REACTION_TIME_,21755
1525516650,b48a2fef186de9965dc9d86aea1a82d1,Form,25,0,nst,NULL,NST_4a_chosen,no
1525516650,b48a2fef186de9965dc9d86aea1a82d1,Form,25,0,nst,NULL,NST_4b_chosen,yes
1525516650,b48a2fef186de9965dc9d86aea1a82d1,Form,25,0,nst,NULL,_REACTION_TIME_,7200
1525516650,b48a2fef186de9965dc9d86aea1a82d1,Form,17,0,low,NULL,answers_reported,placeholderBrother 1 says%2C "Stall E."%2CBrother 2 says%2C "Stalls D and E."%2CBrother 3 says%2C "Stalls A and B."
1525516650,b48a2fef186de9965dc9d86aea1a82d1,Form,17,0,low,NULL,brother_A_chosen,no
1525516650,b48a2fef186de9965dc9d86aea1a82d1,Form,17,0,low,NULL,brother_B_chosen,no
1525516650,b48a2fef186de9965dc9d86aea1a82d1,Form,17,0,low,NULL,brother_C_chosen,yes
1525516650,b48a2fef186de9965dc9d86aea1a82d1,Form,17,0,low,NULL,no_one_chosen,no
1525516650,b48a2fef186de9965dc9d86aea1a82d1,Form,17,0,low,NULL,_REACTION_TIME_,7145
1525516650,b48a2fef186de9965dc9d86aea1a82d1,Form,9,0,high,NULL,answers_reported,placeholderFirefighter 1 says%2C "The sixth floor."%2CFirefighter 2 says%2C "The fourth and fifth floors."%2CFirefighter 3 says%2C "The first floor."
1525516650,b48a2fef186de9965dc9d86aea1a82d1,Form,9,0,high,NULL,firefighter_A_chosen,no
1525516650,b48a2fef186de9965dc9d86aea1a82d1,Form,9,0,high,NULL,firefighter_B_chosen,no
1525516650,b48a2fef186de9965dc9d86aea1a82d1,Form,9,0,high,NULL,firefighter_C_chosen,yes
1525516650,b48a2fef186de9965dc9d86aea1a82d1,Form,9,0,high,NULL,no_one_chosen,no
1525516650,b48a2fef186de9965dc9d86aea1a82d1,Form,9,0,high,NULL,_REACTION_TIME_,18150
1525516650,b48a2fef186de9965dc9d86aea1a82d1,Form,16,0,low,NULL,answers_reported,placeholderCoworker 1 says%2C "Studio A."%2CCoworker 2 says%2C "Studio E."%2CCoworker 3 says%2C "Studios A%2C B%2C C%2C D and E."
1525516650,b48a2fef186de9965dc9d86aea1a82d1,Form,16,0,low,NULL,yoga_coworker_A_chosen,yes
1525516650,b48a2fef186de9965dc9d86aea1a82d1,Form,16,0,low,NULL,yoga_coworker_B_chosen,no
1525516650,b48a2fef186de9965dc9d86aea1a82d1,Form,16,0,low,NULL,yoga_coworker_C_chosen,no
1525516650,b48a2fef186de9965dc9d86aea1a82d1,Form,16,0,low,NULL,no_one_chosen,no
1525516650,b48a2fef186de9965dc9d86aea1a82d1,Form,16,0,low,NULL,_REACTION_TIME_,13225
1525516650,b48a2fef186de9965dc9d86aea1a82d1,Form,21,0,control,NULL,how_guest_A_chosen,no
1525516650,b48a2fef186de9965dc9d86aea1a82d1,Form,21,0,control,NULL,how_guest_B_chosen,no
1525516650,b48a2fef186de9965dc9d86aea1a82d1,Form,21,0,control,NULL,how_guest_C_chosen,yes
1525516650,b48a2fef186de9965dc9d86aea1a82d1,Form,21,0,control,NULL,none_chosen,no
1525516650,b48a2fef186de9965dc9d86aea1a82d1,Form,21,0,control,NULL,_REACTION_TIME_,20613
1525516650,b48a2fef186de9965dc9d86aea1a82d1,Form,24,0,nst,NULL,NST_3a_chosen,yes
1525516650,b48a2fef186de9965dc9d86aea1a82d1,Form,24,0,nst,NULL,NST_3b_chosen,no
1525516650,b48a2fef186de9965dc9d86aea1a82d1,Form,24,0,nst,NULL,NST_3c_chosen,no
1525516650,b48a2fef186de9965dc9d86aea1a82d1,Form,24,0,nst,NULL,NST_3d_chosen,yes
1525516650,b48a2fef186de9965dc9d86aea1a82d1,Form,24,0,nst,NULL,NST_3e_chosen,no
1525516650,b48a2fef186de9965dc9d86aea1a82d1,Form,24,0,nst,NULL,_REACTION_TIME_,13146
1525516650,b48a2fef186de9965dc9d86aea1a82d1,Form,6,0,exit_quest,NULL,know_conditons,In the cabinet.
1525516650,b48a2fef186de9965dc9d86aea1a82d1,Form,6,0,exit_quest,NULL,know_conditons, At the store.
1525516650,b48a2fef186de9965dc9d86aea1a82d1,Form,6,0,exit_quest,NULL,difficult,No%2C it was fine.  I just had to read.  
1525516650,b48a2fef186de9965dc9d86aea1a82d1,Form,6,0,exit_quest,NULL,anything_else,No%2C thank you.  
1525516650,b48a2fef186de9965dc9d86aea1a82d1,Form,6,0,exit_quest,NULL,dummy_checkbox_,yes
1525516650,b48a2fef186de9965dc9d86aea1a82d1,Form,6,0,exit_quest,NULL,_REACTION_TIME_,41333
#
# Results on Saturday May 05 2018 10:37:40 UTC.
# USER AGENT: Mozilla/5.0 (Windows NT 10.0; Win64; x64) AppleWebKit/537.36 (KHTML, like Gecko) Chrome/66.0.3359.139 Safari/537.36
# Design number was non-random = 1
#
# Columns below this comment are as follows:
# 1. Time results were received.
# 2. MD5 hash of participant's IP address.
# 3. Controller name.
# 4. Item number.
# 5. Element number.
# 6. Type.
# 7. Group.
# 8. Field name.
# 9. Field value.
1525516661,3ae06e0e04fefabe9ea05d1a7c90c450,Form,2,0,consent,NULL,subject_id,AZEI1634OQBB3
1525516661,3ae06e0e04fefabe9ea05d1a7c90c450,Form,2,0,consent,NULL,native_lang,English
1525516661,3ae06e0e04fefabe9ea05d1a7c90c450,Form,2,0,consent,NULL,age,29
1525516661,3ae06e0e04fefabe9ea05d1a7c90c450,Form,2,0,consent,NULL,consent_checkbox_,yes
1525516661,3ae06e0e04fefabe9ea05d1a7c90c450,Form,2,0,consent,NULL,dummy_checkbox_,yes
1525516661,3ae06e0e04fefabe9ea05d1a7c90c450,Form,2,0,consent,NULL,sex,female
1525516661,3ae06e0e04fefabe9ea05d1a7c90c450,Form,2,0,consent,NULL,_REACTION_TIME_,61313
1525516661,3ae06e0e04fefabe9ea05d1a7c90c450,Form,1,0,instructions,NULL,dummy_checkbox_,yes
1525516661,3ae06e0e04fefabe9ea05d1a7c90c450,Form,1,0,instructions,NULL,_REACTION_TIME_,18547
1525516661,3ae06e0e04fefabe9ea05d1a7c90c450,Form,4,0,train,NULL,train_m_A_chosen,no
1525516661,3ae06e0e04fefabe9ea05d1a7c90c450,Form,4,0,train,NULL,train_m_B_chosen,yes
1525516661,3ae06e0e04fefabe9ea05d1a7c90c450,Form,4,0,train,NULL,train_m_C_chosen,yes
1525516661,3ae06e0e04fefabe9ea05d1a7c90c450,Form,4,0,train,NULL,none_chosen,no
1525516661,3ae06e0e04fefabe9ea05d1a7c90c450,Form,4,0,train,NULL,_REACTION_TIME_,37661
1525516661,3ae06e0e04fefabe9ea05d1a7c90c450,Form,3,0,train,NULL,train_f_A_chosen,no
1525516661,3ae06e0e04fefabe9ea05d1a7c90c450,Form,3,0,train,NULL,train_f_B_chosen,no
1525516661,3ae06e0e04fefabe9ea05d1a7c90c450,Form,3,0,train,NULL,train_f_C_chosen,no
1525516661,3ae06e0e04fefabe9ea05d1a7c90c450,Form,3,0,train,NULL,none_chosen,yes
1525516661,3ae06e0e04fefabe9ea05d1a7c90c450,Form,3,0,train,NULL,_REACTION_TIME_,31052
1525516661,3ae06e0e04fefabe9ea05d1a7c90c450,Form,5,0,train_end,NULL,dummy_checkbox_,yes
1525516661,3ae06e0e04fefabe9ea05d1a7c90c450,Form,5,0,train_end,NULL,_REACTION_TIME_,2017
1525516661,3ae06e0e04fefabe9ea05d1a7c90c450,Form,13,0,low,NULL,answers_reported,placeholderCousin 1 says%2C "Location E."%2CCousin 2 says%2C "Locations A and B."%2CCousin 3 says%2C "Location A."
1525516661,3ae06e0e04fefabe9ea05d1a7c90c450,Form,13,0,low,NULL,pic_cousin_A_chosen,no
1525516661,3ae06e0e04fefabe9ea05d1a7c90c450,Form,13,0,low,NULL,pic_cousin_B_chosen,yes
1525516661,3ae06e0e04fefabe9ea05d1a7c90c450,Form,13,0,low,NULL,pic_cousin_C_chosen,yes
1525516661,3ae06e0e04fefabe9ea05d1a7c90c450,Form,13,0,low,NULL,no_one_chosen,no
1525516661,3ae06e0e04fefabe9ea05d1a7c90c450,Form,13,0,low,NULL,_REACTION_TIME_,49149
1525516661,3ae06e0e04fefabe9ea05d1a7c90c450,Form,11,0,high,NULL,answers_reported,placeholderadviser 1 says%2C "Stores D and E."%2Cadviser 2 says%2C "Store E."%2Cadviser 3 says%2C "Stores A and B."
1525516661,3ae06e0e04fefabe9ea05d1a7c90c450,Form,11,0,high,NULL,terrorism_adviser_A_chosen,no
1525516661,3ae06e0e04fefabe9ea05d1a7c90c450,Form,11,0,high,NULL,terrorism_adviser_B_chosen,no
1525516661,3ae06e0e04fefabe9ea05d1a7c90c450,Form,11,0,high,NULL,terrorism_adviser_C_chosen,yes
1525516661,3ae06e0e04fefabe9ea05d1a7c90c450,Form,11,0,high,NULL,no_one_chosen,no
1525516661,3ae06e0e04fefabe9ea05d1a7c90c450,Form,11,0,high,NULL,_REACTION_TIME_,34243
1525516661,3ae06e0e04fefabe9ea05d1a7c90c450,Form,17,0,low,NULL,answers_reported,placeholderBrother 1 says%2C "Stall F."%2CBrother 2 says%2C "Stalls A%2C B%2C C%2C D and E."%2CBrother 3 says%2C "Stalls A and B."
1525516661,3ae06e0e04fefabe9ea05d1a7c90c450,Form,17,0,low,NULL,brother_A_chosen,no
1525516661,3ae06e0e04fefabe9ea05d1a7c90c450,Form,17,0,low,NULL,brother_B_chosen,no
1525516661,3ae06e0e04fefabe9ea05d1a7c90c450,Form,17,0,low,NULL,brother_C_chosen,yes
1525516661,3ae06e0e04fefabe9ea05d1a7c90c450,Form,17,0,low,NULL,no_one_chosen,no
1525516661,3ae06e0e04fefabe9ea05d1a7c90c450,Form,17,0,low,NULL,_REACTION_TIME_,19060
1525516661,3ae06e0e04fefabe9ea05d1a7c90c450,Form,24,0,nst,NULL,NST_3a_chosen,yes
1525516661,3ae06e0e04fefabe9ea05d1a7c90c450,Form,24,0,nst,NULL,NST_3b_chosen,no
1525516661,3ae06e0e04fefabe9ea05d1a7c90c450,Form,24,0,nst,NULL,NST_3c_chosen,no
1525516661,3ae06e0e04fefabe9ea05d1a7c90c450,Form,24,0,nst,NULL,NST_3d_chosen,yes
1525516661,3ae06e0e04fefabe9ea05d1a7c90c450,Form,24,0,nst,NULL,NST_3e_chosen,no
1525516661,3ae06e0e04fefabe9ea05d1a7c90c450,Form,24,0,nst,NULL,_REACTION_TIME_,26865
1525516661,3ae06e0e04fefabe9ea05d1a7c90c450,Form,20,0,control,NULL,when_A_chosen,no
1525516661,3ae06e0e04fefabe9ea05d1a7c90c450,Form,20,0,control,NULL,when_B_chosen,no
1525516661,3ae06e0e04fefabe9ea05d1a7c90c450,Form,20,0,control,NULL,when_C_chosen,no
1525516661,3ae06e0e04fefabe9ea05d1a7c90c450,Form,20,0,control,NULL,none_chosen,yes
1525516661,3ae06e0e04fefabe9ea05d1a7c90c450,Form,20,0,control,NULL,_REACTION_TIME_,39026
1525516661,3ae06e0e04fefabe9ea05d1a7c90c450,Form,10,0,high,NULL,answers_reported,placeholderOperative 1 says%2C "The North district."%2COperative 2 says%2C "The West district."%2COperative 3 says%2C "The Northeast district."
1525516661,3ae06e0e04fefabe9ea05d1a7c90c450,Form,10,0,high,NULL,operative_A_chosen,no
1525516661,3ae06e0e04fefabe9ea05d1a7c90c450,Form,10,0,high,NULL,operative_B_chosen,no
1525516661,3ae06e0e04fefabe9ea05d1a7c90c450,Form,10,0,high,NULL,operative_C_chosen,yes
1525516661,3ae06e0e04fefabe9ea05d1a7c90c450,Form,10,0,high,NULL,no_one_chosen,no
1525516661,3ae06e0e04fefabe9ea05d1a7c90c450,Form,10,0,high,NULL,_REACTION_TIME_,38836
1525516661,3ae06e0e04fefabe9ea05d1a7c90c450,Form,14,0,low,NULL,answers_reported,placeholderFriend 1 says%2C "Diners D and E."%2CFriend 2 says%2C "Diner A."%2CFriend 3 says%2C "Diners A and B."
1525516661,3ae06e0e04fefabe9ea05d1a7c90c450,Form,14,0,low,NULL,la_friend_A_chosen,no
1525516661,3ae06e0e04fefabe9ea05d1a7c90c450,Form,14,0,low,NULL,la_friend_B_chosen,yes
1525516661,3ae06e0e04fefabe9ea05d1a7c90c450,Form,14,0,low,NULL,la_friend_C_chosen,yes
1525516661,3ae06e0e04fefabe9ea05d1a7c90c450,Form,14,0,low,NULL,no_one_chosen,no
1525516661,3ae06e0e04fefabe9ea05d1a7c90c450,Form,14,0,low,NULL,_REACTION_TIME_,20376
1525516661,3ae06e0e04fefabe9ea05d1a7c90c450,Form,23,0,nst,NULL,NST_2a_chosen,yes
1525516661,3ae06e0e04fefabe9ea05d1a7c90c450,Form,23,0,nst,NULL,NST_2b_chosen,yes
1525516661,3ae06e0e04fefabe9ea05d1a7c90c450,Form,23,0,nst,NULL,NST_2c_chosen,no
1525516661,3ae06e0e04fefabe9ea05d1a7c90c450,Form,23,0,nst,NULL,NST_2d_chosen,no
1525516661,3ae06e0e04fefabe9ea05d1a7c90c450,Form,23,0,nst,NULL,NST_2e_chosen,no
1525516661,3ae06e0e04fefabe9ea05d1a7c90c450,Form,23,0,nst,NULL,_REACTION_TIME_,18700
1525516661,3ae06e0e04fefabe9ea05d1a7c90c450,Form,21,0,control,NULL,how_guest_A_chosen,no
1525516661,3ae06e0e04fefabe9ea05d1a7c90c450,Form,21,0,control,NULL,how_guest_B_chosen,yes
1525516661,3ae06e0e04fefabe9ea05d1a7c90c450,Form,21,0,control,NULL,how_guest_C_chosen,no
1525516661,3ae06e0e04fefabe9ea05d1a7c90c450,Form,21,0,control,NULL,none_chosen,no
1525516661,3ae06e0e04fefabe9ea05d1a7c90c450,Form,21,0,control,NULL,_REACTION_TIME_,21830
1525516661,3ae06e0e04fefabe9ea05d1a7c90c450,Form,9,0,high,NULL,answers_reported,placeholderFirefighter 1 says%2C "The fifth floor."%2CFirefighter 2 says%2C "The first and second floors."%2CFirefighter 3 says%2C "The first floor."
1525516661,3ae06e0e04fefabe9ea05d1a7c90c450,Form,9,0,high,NULL,firefighter_A_chosen,no
1525516661,3ae06e0e04fefabe9ea05d1a7c90c450,Form,9,0,high,NULL,firefighter_B_chosen,yes
1525516661,3ae06e0e04fefabe9ea05d1a7c90c450,Form,9,0,high,NULL,firefighter_C_chosen,yes
1525516661,3ae06e0e04fefabe9ea05d1a7c90c450,Form,9,0,high,NULL,no_one_chosen,no
1525516661,3ae06e0e04fefabe9ea05d1a7c90c450,Form,9,0,high,NULL,_REACTION_TIME_,26166
1525516661,3ae06e0e04fefabe9ea05d1a7c90c450,Form,15,0,low,NULL,answers_reported,placeholderClassmate 1 says%2C "Cafe A."%2CClassmate 2 says%2C "Cafes D and E."%2CClassmate 3 says%2C "Cafe E."
1525516661,3ae06e0e04fefabe9ea05d1a7c90c450,Form,15,0,low,NULL,coffee_classmate_A_chosen,yes
1525516661,3ae06e0e04fefabe9ea05d1a7c90c450,Form,15,0,low,NULL,coffee_classmate_B_chosen,no
1525516661,3ae06e0e04fefabe9ea05d1a7c90c450,Form,15,0,low,NULL,coffee_classmate_C_chosen,no
1525516661,3ae06e0e04fefabe9ea05d1a7c90c450,Form,15,0,low,NULL,no_one_chosen,no
1525516661,3ae06e0e04fefabe9ea05d1a7c90c450,Form,15,0,low,NULL,_REACTION_TIME_,18490
1525516661,3ae06e0e04fefabe9ea05d1a7c90c450,Form,8,0,high,NULL,answers_reported,placeholderInspector 1 says%2C "Restaurants C and E."%2CInspector 2 says%2C "Restaurants A and B."%2CInspector 3 says%2C "Restaurant E."
1525516661,3ae06e0e04fefabe9ea05d1a7c90c450,Form,8,0,high,NULL,inspector_A_chosen,no
1525516661,3ae06e0e04fefabe9ea05d1a7c90c450,Form,8,0,high,NULL,inspector_B_chosen,yes
1525516661,3ae06e0e04fefabe9ea05d1a7c90c450,Form,8,0,high,NULL,inspector_C_chosen,no
1525516661,3ae06e0e04fefabe9ea05d1a7c90c450,Form,8,0,high,NULL,no_one_chosen,no
1525516661,3ae06e0e04fefabe9ea05d1a7c90c450,Form,8,0,high,NULL,_REACTION_TIME_,23032
1525516661,3ae06e0e04fefabe9ea05d1a7c90c450,Form,25,0,nst,NULL,NST_4a_chosen,no
1525516661,3ae06e0e04fefabe9ea05d1a7c90c450,Form,25,0,nst,NULL,NST_4b_chosen,yes
1525516661,3ae06e0e04fefabe9ea05d1a7c90c450,Form,25,0,nst,NULL,_REACTION_TIME_,7791
1525516661,3ae06e0e04fefabe9ea05d1a7c90c450,Form,18,0,control,NULL,why_A_chosen,yes
1525516661,3ae06e0e04fefabe9ea05d1a7c90c450,Form,18,0,control,NULL,why_B_chosen,yes
1525516661,3ae06e0e04fefabe9ea05d1a7c90c450,Form,18,0,control,NULL,why_C_chosen,no
1525516661,3ae06e0e04fefabe9ea05d1a7c90c450,Form,18,0,control,NULL,none_chosen,no
1525516661,3ae06e0e04fefabe9ea05d1a7c90c450,Form,18,0,control,NULL,_REACTION_TIME_,25975
1525516661,3ae06e0e04fefabe9ea05d1a7c90c450,Form,16,0,low,NULL,answers_reported,placeholderCoworker 1 says%2C "Studios A and B."%2CCoworker 2 says%2C "Studio A."%2CCoworker 3 says%2C "Studio F."
1525516661,3ae06e0e04fefabe9ea05d1a7c90c450,Form,16,0,low,NULL,yoga_coworker_A_chosen,yes
1525516661,3ae06e0e04fefabe9ea05d1a7c90c450,Form,16,0,low,NULL,yoga_coworker_B_chosen,yes
1525516661,3ae06e0e04fefabe9ea05d1a7c90c450,Form,16,0,low,NULL,yoga_coworker_C_chosen,no
1525516661,3ae06e0e04fefabe9ea05d1a7c90c450,Form,16,0,low,NULL,no_one_chosen,no
1525516661,3ae06e0e04fefabe9ea05d1a7c90c450,Form,16,0,low,NULL,_REACTION_TIME_,19387
1525516661,3ae06e0e04fefabe9ea05d1a7c90c450,Form,12,0,high,NULL,answers_reported,placeholderInvestigator 1 says%2C "Places D and E."%2CInvestigator 2 says%2C "Places A%2C B%2C C%2C D and E."%2CInvestigator 3 says%2C "Place F."
1525516661,3ae06e0e04fefabe9ea05d1a7c90c450,Form,12,0,high,NULL,fbi_investigator_A_chosen,no
1525516661,3ae06e0e04fefabe9ea05d1a7c90c450,Form,12,0,high,NULL,fbi_investigator_B_chosen,yes
1525516661,3ae06e0e04fefabe9ea05d1a7c90c450,Form,12,0,high,NULL,fbi_investigator_C_chosen,no
1525516661,3ae06e0e04fefabe9ea05d1a7c90c450,Form,12,0,high,NULL,no_one_chosen,no
1525516661,3ae06e0e04fefabe9ea05d1a7c90c450,Form,12,0,high,NULL,_REACTION_TIME_,26320
1525516661,3ae06e0e04fefabe9ea05d1a7c90c450,Form,22,0,nst,NULL,NST_1a_chosen,yes
1525516661,3ae06e0e04fefabe9ea05d1a7c90c450,Form,22,0,nst,NULL,NST_1b_chosen,no
1525516661,3ae06e0e04fefabe9ea05d1a7c90c450,Form,22,0,nst,NULL,NST_1c_chosen,no
1525516661,3ae06e0e04fefabe9ea05d1a7c90c450,Form,22,0,nst,NULL,NST_1d_chosen,yes
1525516661,3ae06e0e04fefabe9ea05d1a7c90c450,Form,22,0,nst,NULL,_REACTION_TIME_,10951
1525516661,3ae06e0e04fefabe9ea05d1a7c90c450,Form,19,0,control,NULL,what_A_chosen,yes
1525516661,3ae06e0e04fefabe9ea05d1a7c90c450,Form,19,0,control,NULL,what_B_chosen,no
1525516661,3ae06e0e04fefabe9ea05d1a7c90c450,Form,19,0,control,NULL,what_C_chosen,no
1525516661,3ae06e0e04fefabe9ea05d1a7c90c450,Form,19,0,control,NULL,none_chosen,no
1525516661,3ae06e0e04fefabe9ea05d1a7c90c450,Form,19,0,control,NULL,_REACTION_TIME_,19468
1525516661,3ae06e0e04fefabe9ea05d1a7c90c450,Form,6,0,exit_quest,NULL,know_conditons,He used the Minneapolis guide to coffee roasters.
1525516661,3ae06e0e04fefabe9ea05d1a7c90c450,Form,6,0,exit_quest,NULL,know_conditons,Cafe A and B.
1525516661,3ae06e0e04fefabe9ea05d1a7c90c450,Form,6,0,exit_quest,NULL,difficult,Somewhat difficult - I do not remember the exact question but I did understand the general structure of the questions and responses. 
1525516661,3ae06e0e04fefabe9ea05d1a7c90c450,Form,6,0,exit_quest,NULL,anything_else,no
1525516661,3ae06e0e04fefabe9ea05d1a7c90c450,Form,6,0,exit_quest,NULL,dummy_checkbox_,yes
1525516661,3ae06e0e04fefabe9ea05d1a7c90c450,Form,6,0,exit_quest,NULL,_REACTION_TIME_,103646
#
# Results on Saturday May 05 2018 10:38:10 UTC.
# USER AGENT: Mozilla/5.0 (Macintosh; Intel Mac OS X 10_12_6) AppleWebKit/537.36 (KHTML, like Gecko) Chrome/65.0.3325.181 Safari/537.36
# Design number was non-random = 1
#
# Columns below this comment are as follows:
# 1. Time results were received.
# 2. MD5 hash of participant's IP address.
# 3. Controller name.
# 4. Item number.
# 5. Element number.
# 6. Type.
# 7. Group.
# 8. Field name.
# 9. Field value.
1525516690,bd5ea524a74e3a0dc10cf00c00f6f76c,Form,2,0,consent,NULL,subject_id,A1BZNPQ0H7ZSER
1525516690,bd5ea524a74e3a0dc10cf00c00f6f76c,Form,2,0,consent,NULL,native_lang,English
1525516690,bd5ea524a74e3a0dc10cf00c00f6f76c,Form,2,0,consent,NULL,age,35
1525516690,bd5ea524a74e3a0dc10cf00c00f6f76c,Form,2,0,consent,NULL,consent_checkbox_,yes
1525516690,bd5ea524a74e3a0dc10cf00c00f6f76c,Form,2,0,consent,NULL,dummy_checkbox_,yes
1525516690,bd5ea524a74e3a0dc10cf00c00f6f76c,Form,2,0,consent,NULL,sex,male
1525516690,bd5ea524a74e3a0dc10cf00c00f6f76c,Form,2,0,consent,NULL,_REACTION_TIME_,24460
1525516690,bd5ea524a74e3a0dc10cf00c00f6f76c,Form,1,0,instructions,NULL,dummy_checkbox_,yes
1525516690,bd5ea524a74e3a0dc10cf00c00f6f76c,Form,1,0,instructions,NULL,_REACTION_TIME_,4573
1525516690,bd5ea524a74e3a0dc10cf00c00f6f76c,Form,4,0,train,NULL,train_m_A_chosen,no
1525516690,bd5ea524a74e3a0dc10cf00c00f6f76c,Form,4,0,train,NULL,train_m_B_chosen,no
1525516690,bd5ea524a74e3a0dc10cf00c00f6f76c,Form,4,0,train,NULL,train_m_C_chosen,yes
1525516690,bd5ea524a74e3a0dc10cf00c00f6f76c,Form,4,0,train,NULL,none_chosen,no
1525516690,bd5ea524a74e3a0dc10cf00c00f6f76c,Form,4,0,train,NULL,_REACTION_TIME_,46002
1525516690,bd5ea524a74e3a0dc10cf00c00f6f76c,Form,3,0,train,NULL,train_f_A_chosen,no
1525516690,bd5ea524a74e3a0dc10cf00c00f6f76c,Form,3,0,train,NULL,train_f_B_chosen,no
1525516690,bd5ea524a74e3a0dc10cf00c00f6f76c,Form,3,0,train,NULL,train_f_C_chosen,no
1525516690,bd5ea524a74e3a0dc10cf00c00f6f76c,Form,3,0,train,NULL,none_chosen,yes
1525516690,bd5ea524a74e3a0dc10cf00c00f6f76c,Form,3,0,train,NULL,_REACTION_TIME_,50666
1525516690,bd5ea524a74e3a0dc10cf00c00f6f76c,Form,5,0,train_end,NULL,dummy_checkbox_,yes
1525516690,bd5ea524a74e3a0dc10cf00c00f6f76c,Form,5,0,train_end,NULL,_REACTION_TIME_,2295
1525516690,bd5ea524a74e3a0dc10cf00c00f6f76c,Form,13,0,low,NULL,answers_reported,placeholderCousin 1 says%2C "Locations D and E."%2CCousin 2 says%2C "Locations A and B."%2CCousin 3 says%2C "Location F."
1525516690,bd5ea524a74e3a0dc10cf00c00f6f76c,Form,13,0,low,NULL,pic_cousin_A_chosen,no
1525516690,bd5ea524a74e3a0dc10cf00c00f6f76c,Form,13,0,low,NULL,pic_cousin_B_chosen,yes
1525516690,bd5ea524a74e3a0dc10cf00c00f6f76c,Form,13,0,low,NULL,pic_cousin_C_chosen,no
1525516690,bd5ea524a74e3a0dc10cf00c00f6f76c,Form,13,0,low,NULL,no_one_chosen,no
1525516690,bd5ea524a74e3a0dc10cf00c00f6f76c,Form,13,0,low,NULL,_REACTION_TIME_,38600
1525516690,bd5ea524a74e3a0dc10cf00c00f6f76c,Form,10,0,high,NULL,answers_reported,placeholderOperative 1 says%2C "The South and North districts."%2COperative 2 says%2C "The Northeast district."%2COperative 3 says%2C "The Northeast and Southwest districts."
1525516690,bd5ea524a74e3a0dc10cf00c00f6f76c,Form,10,0,high,NULL,operative_A_chosen,no
1525516690,bd5ea524a74e3a0dc10cf00c00f6f76c,Form,10,0,high,NULL,operative_B_chosen,no
1525516690,bd5ea524a74e3a0dc10cf00c00f6f76c,Form,10,0,high,NULL,operative_C_chosen,yes
1525516690,bd5ea524a74e3a0dc10cf00c00f6f76c,Form,10,0,high,NULL,no_one_chosen,no
1525516690,bd5ea524a74e3a0dc10cf00c00f6f76c,Form,10,0,high,NULL,_REACTION_TIME_,36051
1525516690,bd5ea524a74e3a0dc10cf00c00f6f76c,Form,15,0,low,NULL,answers_reported,placeholderClassmate 1 says%2C "Cafes A and B."%2CClassmate 2 says%2C "Cafe F."%2CClassmate 3 says%2C "Cafes D and E."
1525516690,bd5ea524a74e3a0dc10cf00c00f6f76c,Form,15,0,low,NULL,coffee_classmate_A_chosen,yes
1525516690,bd5ea524a74e3a0dc10cf00c00f6f76c,Form,15,0,low,NULL,coffee_classmate_B_chosen,no
1525516690,bd5ea524a74e3a0dc10cf00c00f6f76c,Form,15,0,low,NULL,coffee_classmate_C_chosen,no
1525516690,bd5ea524a74e3a0dc10cf00c00f6f76c,Form,15,0,low,NULL,no_one_chosen,no
1525516690,bd5ea524a74e3a0dc10cf00c00f6f76c,Form,15,0,low,NULL,_REACTION_TIME_,19296
1525516690,bd5ea524a74e3a0dc10cf00c00f6f76c,Form,22,0,nst,NULL,NST_1a_chosen,yes
1525516690,bd5ea524a74e3a0dc10cf00c00f6f76c,Form,22,0,nst,NULL,NST_1b_chosen,no
1525516690,bd5ea524a74e3a0dc10cf00c00f6f76c,Form,22,0,nst,NULL,NST_1c_chosen,no
1525516690,bd5ea524a74e3a0dc10cf00c00f6f76c,Form,22,0,nst,NULL,NST_1d_chosen,yes
1525516690,bd5ea524a74e3a0dc10cf00c00f6f76c,Form,22,0,nst,NULL,_REACTION_TIME_,9572
1525516690,bd5ea524a74e3a0dc10cf00c00f6f76c,Form,21,0,control,NULL,how_guest_A_chosen,no
1525516690,bd5ea524a74e3a0dc10cf00c00f6f76c,Form,21,0,control,NULL,how_guest_B_chosen,yes
1525516690,bd5ea524a74e3a0dc10cf00c00f6f76c,Form,21,0,control,NULL,how_guest_C_chosen,yes
1525516690,bd5ea524a74e3a0dc10cf00c00f6f76c,Form,21,0,control,NULL,none_chosen,no
1525516690,bd5ea524a74e3a0dc10cf00c00f6f76c,Form,21,0,control,NULL,_REACTION_TIME_,51113
1525516690,bd5ea524a74e3a0dc10cf00c00f6f76c,Form,9,0,high,NULL,answers_reported,placeholderFirefighter 1 says%2C "The first and second floors."%2CFirefighter 2 says%2C "The fourth and fifth floors."%2CFirefighter 3 says%2C "The first floor."
1525516690,bd5ea524a74e3a0dc10cf00c00f6f76c,Form,9,0,high,NULL,firefighter_A_chosen,yes
1525516690,bd5ea524a74e3a0dc10cf00c00f6f76c,Form,9,0,high,NULL,firefighter_B_chosen,yes
1525516690,bd5ea524a74e3a0dc10cf00c00f6f76c,Form,9,0,high,NULL,firefighter_C_chosen,yes
1525516690,bd5ea524a74e3a0dc10cf00c00f6f76c,Form,9,0,high,NULL,no_one_chosen,no
1525516690,bd5ea524a74e3a0dc10cf00c00f6f76c,Form,9,0,high,NULL,_REACTION_TIME_,35588
1525516690,bd5ea524a74e3a0dc10cf00c00f6f76c,Form,17,0,low,NULL,answers_reported,placeholderBrother 1 says%2C "Stall F."%2CBrother 2 says%2C "Stall E."%2CBrother 3 says%2C "Stalls A and B."
1525516690,bd5ea524a74e3a0dc10cf00c00f6f76c,Form,17,0,low,NULL,brother_A_chosen,no
1525516690,bd5ea524a74e3a0dc10cf00c00f6f76c,Form,17,0,low,NULL,brother_B_chosen,no
1525516690,bd5ea524a74e3a0dc10cf00c00f6f76c,Form,17,0,low,NULL,brother_C_chosen,yes
1525516690,bd5ea524a74e3a0dc10cf00c00f6f76c,Form,17,0,low,NULL,no_one_chosen,no
1525516690,bd5ea524a74e3a0dc10cf00c00f6f76c,Form,17,0,low,NULL,_REACTION_TIME_,21009
1525516690,bd5ea524a74e3a0dc10cf00c00f6f76c,Form,24,0,nst,NULL,NST_3a_chosen,yes
1525516690,bd5ea524a74e3a0dc10cf00c00f6f76c,Form,24,0,nst,NULL,NST_3b_chosen,no
1525516690,bd5ea524a74e3a0dc10cf00c00f6f76c,Form,24,0,nst,NULL,NST_3c_chosen,no
1525516690,bd5ea524a74e3a0dc10cf00c00f6f76c,Form,24,0,nst,NULL,NST_3d_chosen,yes
1525516690,bd5ea524a74e3a0dc10cf00c00f6f76c,Form,24,0,nst,NULL,NST_3e_chosen,no
1525516690,bd5ea524a74e3a0dc10cf00c00f6f76c,Form,24,0,nst,NULL,_REACTION_TIME_,18182
1525516690,bd5ea524a74e3a0dc10cf00c00f6f76c,Form,19,0,control,NULL,what_A_chosen,yes
1525516690,bd5ea524a74e3a0dc10cf00c00f6f76c,Form,19,0,control,NULL,what_B_chosen,no
1525516690,bd5ea524a74e3a0dc10cf00c00f6f76c,Form,19,0,control,NULL,what_C_chosen,no
1525516690,bd5ea524a74e3a0dc10cf00c00f6f76c,Form,19,0,control,NULL,none_chosen,no
1525516690,bd5ea524a74e3a0dc10cf00c00f6f76c,Form,19,0,control,NULL,_REACTION_TIME_,32735
1525516690,bd5ea524a74e3a0dc10cf00c00f6f76c,Form,12,0,high,NULL,answers_reported,placeholderInvestigator 1 says%2C "Place E."%2CInvestigator 2 says%2C "Places D and E."%2CInvestigator 3 says%2C "Place A."
1525516690,bd5ea524a74e3a0dc10cf00c00f6f76c,Form,12,0,high,NULL,fbi_investigator_A_chosen,no
1525516690,bd5ea524a74e3a0dc10cf00c00f6f76c,Form,12,0,high,NULL,fbi_investigator_B_chosen,no
1525516690,bd5ea524a74e3a0dc10cf00c00f6f76c,Form,12,0,high,NULL,fbi_investigator_C_chosen,yes
1525516690,bd5ea524a74e3a0dc10cf00c00f6f76c,Form,12,0,high,NULL,no_one_chosen,no
1525516690,bd5ea524a74e3a0dc10cf00c00f6f76c,Form,12,0,high,NULL,_REACTION_TIME_,12935
1525516690,bd5ea524a74e3a0dc10cf00c00f6f76c,Form,14,0,low,NULL,answers_reported,placeholderFriend 1 says%2C "Diners A%2C B%2C C%2C D%2C and E."%2CFriend 2 says%2C "Diner A."%2CFriend 3 says%2C "Diners D and E."
1525516690,bd5ea524a74e3a0dc10cf00c00f6f76c,Form,14,0,low,NULL,la_friend_A_chosen,no
1525516690,bd5ea524a74e3a0dc10cf00c00f6f76c,Form,14,0,low,NULL,la_friend_B_chosen,yes
1525516690,bd5ea524a74e3a0dc10cf00c00f6f76c,Form,14,0,low,NULL,la_friend_C_chosen,no
1525516690,bd5ea524a74e3a0dc10cf00c00f6f76c,Form,14,0,low,NULL,no_one_chosen,no
1525516690,bd5ea524a74e3a0dc10cf00c00f6f76c,Form,14,0,low,NULL,_REACTION_TIME_,14643
1525516690,bd5ea524a74e3a0dc10cf00c00f6f76c,Form,8,0,high,NULL,answers_reported,placeholderInspector 1 says%2C "Restaurant A."%2CInspector 2 says%2C "Restaurants A%2C B%2C C%2C D%2C and E."%2CInspector 3 says%2C "Restaurants A and B."
1525516690,bd5ea524a74e3a0dc10cf00c00f6f76c,Form,8,0,high,NULL,inspector_A_chosen,no
1525516690,bd5ea524a74e3a0dc10cf00c00f6f76c,Form,8,0,high,NULL,inspector_B_chosen,yes
1525516690,bd5ea524a74e3a0dc10cf00c00f6f76c,Form,8,0,high,NULL,inspector_C_chosen,no
1525516690,bd5ea524a74e3a0dc10cf00c00f6f76c,Form,8,0,high,NULL,no_one_chosen,no
1525516690,bd5ea524a74e3a0dc10cf00c00f6f76c,Form,8,0,high,NULL,_REACTION_TIME_,17857
1525516690,bd5ea524a74e3a0dc10cf00c00f6f76c,Form,23,0,nst,NULL,NST_2a_chosen,yes
1525516690,bd5ea524a74e3a0dc10cf00c00f6f76c,Form,23,0,nst,NULL,NST_2b_chosen,yes
1525516690,bd5ea524a74e3a0dc10cf00c00f6f76c,Form,23,0,nst,NULL,NST_2c_chosen,no
1525516690,bd5ea524a74e3a0dc10cf00c00f6f76c,Form,23,0,nst,NULL,NST_2d_chosen,no
1525516690,bd5ea524a74e3a0dc10cf00c00f6f76c,Form,23,0,nst,NULL,NST_2e_chosen,no
1525516690,bd5ea524a74e3a0dc10cf00c00f6f76c,Form,23,0,nst,NULL,_REACTION_TIME_,15138
1525516690,bd5ea524a74e3a0dc10cf00c00f6f76c,Form,18,0,control,NULL,why_A_chosen,yes
1525516690,bd5ea524a74e3a0dc10cf00c00f6f76c,Form,18,0,control,NULL,why_B_chosen,no
1525516690,bd5ea524a74e3a0dc10cf00c00f6f76c,Form,18,0,control,NULL,why_C_chosen,no
1525516690,bd5ea524a74e3a0dc10cf00c00f6f76c,Form,18,0,control,NULL,none_chosen,no
1525516690,bd5ea524a74e3a0dc10cf00c00f6f76c,Form,18,0,control,NULL,_REACTION_TIME_,12732
1525516690,bd5ea524a74e3a0dc10cf00c00f6f76c,Form,16,0,low,NULL,answers_reported,placeholderCoworker 1 says%2C "Studios A and B."%2CCoworker 2 says%2C "Studios D and E."%2CCoworker 3 says%2C "Studio E."
1525516690,bd5ea524a74e3a0dc10cf00c00f6f76c,Form,16,0,low,NULL,yoga_coworker_A_chosen,yes
1525516690,bd5ea524a74e3a0dc10cf00c00f6f76c,Form,16,0,low,NULL,yoga_coworker_B_chosen,no
1525516690,bd5ea524a74e3a0dc10cf00c00f6f76c,Form,16,0,low,NULL,yoga_coworker_C_chosen,no
1525516690,bd5ea524a74e3a0dc10cf00c00f6f76c,Form,16,0,low,NULL,no_one_chosen,no
1525516690,bd5ea524a74e3a0dc10cf00c00f6f76c,Form,16,0,low,NULL,_REACTION_TIME_,7458
1525516690,bd5ea524a74e3a0dc10cf00c00f6f76c,Form,11,0,high,NULL,answers_reported,placeholderadviser 1 says%2C "Store E."%2Cadviser 2 says%2C "Stores A and B."%2Cadviser 3 says%2C "Stores D and E."
1525516690,bd5ea524a74e3a0dc10cf00c00f6f76c,Form,11,0,high,NULL,terrorism_adviser_A_chosen,no
1525516690,bd5ea524a74e3a0dc10cf00c00f6f76c,Form,11,0,high,NULL,terrorism_adviser_B_chosen,yes
1525516690,bd5ea524a74e3a0dc10cf00c00f6f76c,Form,11,0,high,NULL,terrorism_adviser_C_chosen,no
1525516690,bd5ea524a74e3a0dc10cf00c00f6f76c,Form,11,0,high,NULL,no_one_chosen,no
1525516690,bd5ea524a74e3a0dc10cf00c00f6f76c,Form,11,0,high,NULL,_REACTION_TIME_,8883
1525516690,bd5ea524a74e3a0dc10cf00c00f6f76c,Form,25,0,nst,NULL,NST_4a_chosen,no
1525516690,bd5ea524a74e3a0dc10cf00c00f6f76c,Form,25,0,nst,NULL,NST_4b_chosen,yes
1525516690,bd5ea524a74e3a0dc10cf00c00f6f76c,Form,25,0,nst,NULL,_REACTION_TIME_,6041
