#
# Results on Tuesday August 21 2018 01:35:00 UTC.
# USER AGENT: Mozilla/5.0 (Macintosh; Intel Mac OS X 10_13_3) AppleWebKit/537.36 (KHTML, like Gecko) Chrome/67.0.3396.99 Safari/537.36
# Design number was non-random = 2
#
# Columns below this comment are as follows:
# 1. Time results were received.
# 2. MD5 hash of participant's IP address.
# 3. Controller name.
# 4. Item number.
# 5. Element number.
# 6. Type.
# 7. Group.
# 8. Field name.
# 9. Field value.
1534815301,a9a1d4721319a3afa6c10269a03e1b1b,Form,2,0,consent,NULL,subject_id,A2MM10557W7PLD
1534815301,a9a1d4721319a3afa6c10269a03e1b1b,Form,2,0,consent,NULL,native_lang,english
1534815301,a9a1d4721319a3afa6c10269a03e1b1b,Form,2,0,consent,NULL,age,35
1534815301,a9a1d4721319a3afa6c10269a03e1b1b,Form,2,0,consent,NULL,consent_checkbox_,yes
1534815301,a9a1d4721319a3afa6c10269a03e1b1b,Form,2,0,consent,NULL,dummy_checkbox_,yes
1534815301,a9a1d4721319a3afa6c10269a03e1b1b,Form,2,0,consent,NULL,sex,male
1534815301,a9a1d4721319a3afa6c10269a03e1b1b,Form,2,0,consent,NULL,_REACTION_TIME_,20046
1534815301,a9a1d4721319a3afa6c10269a03e1b1b,Form,1,0,instructions,NULL,dummy_checkbox_,yes
1534815301,a9a1d4721319a3afa6c10269a03e1b1b,Form,1,0,instructions,NULL,_REACTION_TIME_,1926
1534815301,a9a1d4721319a3afa6c10269a03e1b1b,Form,3,0,train,NULL,train_f_A_chosen,no
1534815301,a9a1d4721319a3afa6c10269a03e1b1b,Form,3,0,train,NULL,train_f_B_chosen,no
1534815301,a9a1d4721319a3afa6c10269a03e1b1b,Form,3,0,train,NULL,train_f_C_chosen,no
1534815301,a9a1d4721319a3afa6c10269a03e1b1b,Form,3,0,train,NULL,none_chosen,yes
1534815301,a9a1d4721319a3afa6c10269a03e1b1b,Form,3,0,train,NULL,_REACTION_TIME_,21653
1534815301,a9a1d4721319a3afa6c10269a03e1b1b,Form,4,0,train,NULL,train_m_A_chosen,no
1534815301,a9a1d4721319a3afa6c10269a03e1b1b,Form,4,0,train,NULL,train_m_B_chosen,no
1534815301,a9a1d4721319a3afa6c10269a03e1b1b,Form,4,0,train,NULL,train_m_C_chosen,yes
1534815301,a9a1d4721319a3afa6c10269a03e1b1b,Form,4,0,train,NULL,none_chosen,no
1534815301,a9a1d4721319a3afa6c10269a03e1b1b,Form,4,0,train,NULL,_REACTION_TIME_,10681
1534815301,a9a1d4721319a3afa6c10269a03e1b1b,Form,5,0,train_end,NULL,dummy_checkbox_,yes
1534815301,a9a1d4721319a3afa6c10269a03e1b1b,Form,5,0,train_end,NULL,_REACTION_TIME_,2501
1534815301,a9a1d4721319a3afa6c10269a03e1b1b,Form,13,0,test,NULL,answers_reported,placeholderRoommate 1 says%2C "Cafes D and E."%2CRoommate 2 says%2C "Cafes A and B."%2CRoommate 3 says%2C "Cafe E."
1534815301,a9a1d4721319a3afa6c10269a03e1b1b,Form,13,0,test,NULL,coffee_A_chosen,no
1534815301,a9a1d4721319a3afa6c10269a03e1b1b,Form,13,0,test,NULL,coffee_B_chosen,no
1534815301,a9a1d4721319a3afa6c10269a03e1b1b,Form,13,0,test,NULL,coffee_C_chosen,yes
1534815301,a9a1d4721319a3afa6c10269a03e1b1b,Form,13,0,test,NULL,no_one_chosen,no
1534815301,a9a1d4721319a3afa6c10269a03e1b1b,Form,13,0,test,NULL,_REACTION_TIME_,8449
1534815301,a9a1d4721319a3afa6c10269a03e1b1b,Form,12,0,test,NULL,answers_reported,placeholderRoommate 1 says%2C "Stall E."%2CRoommate 2 says%2C "Stalls A and B."%2CRoommate 3 says%2C "Stalls D and E."
1534815301,a9a1d4721319a3afa6c10269a03e1b1b,Form,12,0,test,NULL,yarn_A_chosen,no
1534815301,a9a1d4721319a3afa6c10269a03e1b1b,Form,12,0,test,NULL,yarn_B_chosen,yes
1534815301,a9a1d4721319a3afa6c10269a03e1b1b,Form,12,0,test,NULL,yarn_C_chosen,no
1534815301,a9a1d4721319a3afa6c10269a03e1b1b,Form,12,0,test,NULL,no_one_chosen,no
1534815301,a9a1d4721319a3afa6c10269a03e1b1b,Form,12,0,test,NULL,_REACTION_TIME_,18900
1534815301,a9a1d4721319a3afa6c10269a03e1b1b,Form,22,0,nst,NULL,NST_1a_chosen,no
1534815301,a9a1d4721319a3afa6c10269a03e1b1b,Form,22,0,nst,NULL,NST_1b_chosen,no
1534815301,a9a1d4721319a3afa6c10269a03e1b1b,Form,22,0,nst,NULL,NST_1c_chosen,no
1534815301,a9a1d4721319a3afa6c10269a03e1b1b,Form,22,0,nst,NULL,NST_1d_chosen,yes
1534815301,a9a1d4721319a3afa6c10269a03e1b1b,Form,22,0,nst,NULL,_REACTION_TIME_,6319
1534815301,a9a1d4721319a3afa6c10269a03e1b1b,Form,19,0,ginz,NULL,ginzwhere_largegrain_y_chosen,yes
1534815301,a9a1d4721319a3afa6c10269a03e1b1b,Form,19,0,ginz,NULL,ginzwhere_largegrain_n_chosen,no
1534815301,a9a1d4721319a3afa6c10269a03e1b1b,Form,19,0,ginz,NULL,_REACTION_TIME_,5846
1534815301,a9a1d4721319a3afa6c10269a03e1b1b,Form,17,0,control,NULL,how_guest_A_chosen,no
1534815301,a9a1d4721319a3afa6c10269a03e1b1b,Form,17,0,control,NULL,how_guest_B_chosen,yes
1534815301,a9a1d4721319a3afa6c10269a03e1b1b,Form,17,0,control,NULL,how_guest_C_chosen,no
1534815301,a9a1d4721319a3afa6c10269a03e1b1b,Form,17,0,control,NULL,none_chosen,no
1534815301,a9a1d4721319a3afa6c10269a03e1b1b,Form,17,0,control,NULL,_REACTION_TIME_,4935
1534815301,a9a1d4721319a3afa6c10269a03e1b1b,Form,9,0,test,NULL,answers_reported,placeholderFriend 1 says%2C "Bookstore F."%2CFriend 2 says%2C "Bookstore E."%2CFriend 3 says%2C "Bookstores A%2C B%2C C%2C D and E."
1534815301,a9a1d4721319a3afa6c10269a03e1b1b,Form,9,0,test,NULL,books_A_chosen,no
1534815301,a9a1d4721319a3afa6c10269a03e1b1b,Form,9,0,test,NULL,books_B_chosen,no
1534815301,a9a1d4721319a3afa6c10269a03e1b1b,Form,9,0,test,NULL,books_C_chosen,yes
1534815301,a9a1d4721319a3afa6c10269a03e1b1b,Form,9,0,test,NULL,no_one_chosen,no
1534815301,a9a1d4721319a3afa6c10269a03e1b1b,Form,9,0,test,NULL,_REACTION_TIME_,3910
1534815301,a9a1d4721319a3afa6c10269a03e1b1b,Form,23,0,nst,NULL,NST_2a_chosen,yes
1534815301,a9a1d4721319a3afa6c10269a03e1b1b,Form,23,0,nst,NULL,NST_2b_chosen,no
1534815301,a9a1d4721319a3afa6c10269a03e1b1b,Form,23,0,nst,NULL,NST_2c_chosen,no
1534815301,a9a1d4721319a3afa6c10269a03e1b1b,Form,23,0,nst,NULL,NST_2d_chosen,no
1534815301,a9a1d4721319a3afa6c10269a03e1b1b,Form,23,0,nst,NULL,NST_2e_chosen,no
1534815301,a9a1d4721319a3afa6c10269a03e1b1b,Form,23,0,nst,NULL,_REACTION_TIME_,12848
1534815301,a9a1d4721319a3afa6c10269a03e1b1b,Form,21,0,ginz,NULL,ginzwhere_smallgrain_y_chosen,yes
1534815301,a9a1d4721319a3afa6c10269a03e1b1b,Form,21,0,ginz,NULL,ginzwhere_smallgrain_n_chosen,no
1534815301,a9a1d4721319a3afa6c10269a03e1b1b,Form,21,0,ginz,NULL,_REACTION_TIME_,5545
1534815301,a9a1d4721319a3afa6c10269a03e1b1b,Form,10,0,test,NULL,answers_reported,placeholderFriend 1 says%2C "Stylist A."%2CFriend 2 says%2C "Stylists D and E."%2CFriend 3 says%2C "Stylist E."
1534815301,a9a1d4721319a3afa6c10269a03e1b1b,Form,10,0,test,NULL,hair_A_chosen,no
1534815301,a9a1d4721319a3afa6c10269a03e1b1b,Form,10,0,test,NULL,hair_B_chosen,yes
1534815301,a9a1d4721319a3afa6c10269a03e1b1b,Form,10,0,test,NULL,hair_C_chosen,no
1534815301,a9a1d4721319a3afa6c10269a03e1b1b,Form,10,0,test,NULL,no_one_chosen,no
1534815301,a9a1d4721319a3afa6c10269a03e1b1b,Form,10,0,test,NULL,_REACTION_TIME_,2766
1534815301,a9a1d4721319a3afa6c10269a03e1b1b,Form,14,0,control,NULL,why_A_chosen,no
1534815301,a9a1d4721319a3afa6c10269a03e1b1b,Form,14,0,control,NULL,why_B_chosen,no
1534815301,a9a1d4721319a3afa6c10269a03e1b1b,Form,14,0,control,NULL,why_C_chosen,yes
1534815301,a9a1d4721319a3afa6c10269a03e1b1b,Form,14,0,control,NULL,none_chosen,no
1534815301,a9a1d4721319a3afa6c10269a03e1b1b,Form,14,0,control,NULL,_REACTION_TIME_,3615
1534815301,a9a1d4721319a3afa6c10269a03e1b1b,Form,8,0,test,NULL,answers_reported,placeholderFriend 1 says%2C "Store A."%2CFriend 2 says%2C "Store E."%2CFriend 3 says%2C "Stores A and B."
1534815301,a9a1d4721319a3afa6c10269a03e1b1b,Form,8,0,test,NULL,shoes_A_chosen,yes
1534815301,a9a1d4721319a3afa6c10269a03e1b1b,Form,8,0,test,NULL,shoes_B_chosen,no
1534815301,a9a1d4721319a3afa6c10269a03e1b1b,Form,8,0,test,NULL,shoes_C_chosen,no
1534815301,a9a1d4721319a3afa6c10269a03e1b1b,Form,8,0,test,NULL,no_one_chosen,no
1534815301,a9a1d4721319a3afa6c10269a03e1b1b,Form,8,0,test,NULL,_REACTION_TIME_,4791
1534815301,a9a1d4721319a3afa6c10269a03e1b1b,Form,24,0,nst,NULL,NST_3a_chosen,yes
1534815301,a9a1d4721319a3afa6c10269a03e1b1b,Form,24,0,nst,NULL,NST_3b_chosen,no
1534815301,a9a1d4721319a3afa6c10269a03e1b1b,Form,24,0,nst,NULL,NST_3c_chosen,no
1534815301,a9a1d4721319a3afa6c10269a03e1b1b,Form,24,0,nst,NULL,NST_3d_chosen,no
1534815301,a9a1d4721319a3afa6c10269a03e1b1b,Form,24,0,nst,NULL,NST_3e_chosen,no
1534815301,a9a1d4721319a3afa6c10269a03e1b1b,Form,24,0,nst,NULL,_REACTION_TIME_,7372
1534815301,a9a1d4721319a3afa6c10269a03e1b1b,Form,18,0,ginz,NULL,ginzwhere_largegrain_y_chosen,yes
1534815301,a9a1d4721319a3afa6c10269a03e1b1b,Form,18,0,ginz,NULL,ginzwhere_largegrain_n_chosen,no
1534815301,a9a1d4721319a3afa6c10269a03e1b1b,Form,18,0,ginz,NULL,_REACTION_TIME_,10105
1534815301,a9a1d4721319a3afa6c10269a03e1b1b,Form,16,0,control,NULL,when_A_chosen,no
1534815301,a9a1d4721319a3afa6c10269a03e1b1b,Form,16,0,control,NULL,when_B_chosen,no
1534815301,a9a1d4721319a3afa6c10269a03e1b1b,Form,16,0,control,NULL,when_C_chosen,yes
1534815301,a9a1d4721319a3afa6c10269a03e1b1b,Form,16,0,control,NULL,none_chosen,no
1534815301,a9a1d4721319a3afa6c10269a03e1b1b,Form,16,0,control,NULL,_REACTION_TIME_,3895
1534815301,a9a1d4721319a3afa6c10269a03e1b1b,Form,11,0,test,NULL,answers_reported,placeholderCoworker 1 says%2C "Dentist E."%2CCoworker 2 says%2C "Dentists A and B."%2CCoworker 3 says%2C "Dentists D and E."
1534815301,a9a1d4721319a3afa6c10269a03e1b1b,Form,11,0,test,NULL,dentist_A_chosen,no
1534815301,a9a1d4721319a3afa6c10269a03e1b1b,Form,11,0,test,NULL,dentist_B_chosen,no
1534815301,a9a1d4721319a3afa6c10269a03e1b1b,Form,11,0,test,NULL,dentist_C_chosen,yes
1534815301,a9a1d4721319a3afa6c10269a03e1b1b,Form,11,0,test,NULL,no_one_chosen,no
1534815301,a9a1d4721319a3afa6c10269a03e1b1b,Form,11,0,test,NULL,_REACTION_TIME_,2823
1534815301,a9a1d4721319a3afa6c10269a03e1b1b,Form,25,0,nst,NULL,NST_4a_chosen,no
1534815301,a9a1d4721319a3afa6c10269a03e1b1b,Form,25,0,nst,NULL,NST_4b_chosen,yes
1534815301,a9a1d4721319a3afa6c10269a03e1b1b,Form,25,0,nst,NULL,_REACTION_TIME_,5941
1534815301,a9a1d4721319a3afa6c10269a03e1b1b,Form,20,0,ginz,NULL,ginzwho_smallgrain_y_chosen,yes
1534815301,a9a1d4721319a3afa6c10269a03e1b1b,Form,20,0,ginz,NULL,ginzwho_smallgrain_n_chosen,no
1534815301,a9a1d4721319a3afa6c10269a03e1b1b,Form,20,0,ginz,NULL,_REACTION_TIME_,3104
1534815301,a9a1d4721319a3afa6c10269a03e1b1b,Form,15,0,control,NULL,what_A_chosen,no
1534815301,a9a1d4721319a3afa6c10269a03e1b1b,Form,15,0,control,NULL,what_B_chosen,no
1534815301,a9a1d4721319a3afa6c10269a03e1b1b,Form,15,0,control,NULL,what_C_chosen,yes
1534815301,a9a1d4721319a3afa6c10269a03e1b1b,Form,15,0,control,NULL,none_chosen,no
1534815301,a9a1d4721319a3afa6c10269a03e1b1b,Form,15,0,control,NULL,_REACTION_TIME_,2975
1534815301,a9a1d4721319a3afa6c10269a03e1b1b,Form,6,0,exit_quest,NULL,know_conditons,No%2C the answer would be the same
1534815301,a9a1d4721319a3afa6c10269a03e1b1b,Form,6,0,exit_quest,NULL,difficult,No%2C it was fun
1534815301,a9a1d4721319a3afa6c10269a03e1b1b,Form,6,0,exit_quest,NULL,anything_else,interesting
1534815301,a9a1d4721319a3afa6c10269a03e1b1b,Form,6,0,exit_quest,NULL,dummy_checkbox_,yes
1534815301,a9a1d4721319a3afa6c10269a03e1b1b,Form,6,0,exit_quest,NULL,_REACTION_TIME_,30724
#
# Results on Tuesday August 21 2018 01:35:22 UTC.
# USER AGENT: Mozilla/5.0 (Windows NT 6.1; Win64; x64) AppleWebKit/537.36 (KHTML, like Gecko) Chrome/68.0.3440.106 Safari/537.36
# Design number was non-random = 2
#
# Columns below this comment are as follows:
# 1. Time results were received.
# 2. MD5 hash of participant's IP address.
# 3. Controller name.
# 4. Item number.
# 5. Element number.
# 6. Type.
# 7. Group.
# 8. Field name.
# 9. Field value.
1534815323,e6171b1283ca2b9ece0dd74dcf7c30d1,Form,2,0,consent,NULL,subject_id,A3FFZN4FO3Q789
1534815323,e6171b1283ca2b9ece0dd74dcf7c30d1,Form,2,0,consent,NULL,native_lang,english
1534815323,e6171b1283ca2b9ece0dd74dcf7c30d1,Form,2,0,consent,NULL,age,30
1534815323,e6171b1283ca2b9ece0dd74dcf7c30d1,Form,2,0,consent,NULL,consent_checkbox_,yes
1534815323,e6171b1283ca2b9ece0dd74dcf7c30d1,Form,2,0,consent,NULL,dummy_checkbox_,yes
1534815323,e6171b1283ca2b9ece0dd74dcf7c30d1,Form,2,0,consent,NULL,sex,male
1534815323,e6171b1283ca2b9ece0dd74dcf7c30d1,Form,2,0,consent,NULL,_REACTION_TIME_,116007
1534815323,e6171b1283ca2b9ece0dd74dcf7c30d1,Form,1,0,instructions,NULL,dummy_checkbox_,yes
1534815323,e6171b1283ca2b9ece0dd74dcf7c30d1,Form,1,0,instructions,NULL,_REACTION_TIME_,1596
1534815323,e6171b1283ca2b9ece0dd74dcf7c30d1,Form,4,0,train,NULL,train_m_A_chosen,yes
1534815323,e6171b1283ca2b9ece0dd74dcf7c30d1,Form,4,0,train,NULL,train_m_B_chosen,yes
1534815323,e6171b1283ca2b9ece0dd74dcf7c30d1,Form,4,0,train,NULL,train_m_C_chosen,yes
1534815323,e6171b1283ca2b9ece0dd74dcf7c30d1,Form,4,0,train,NULL,none_chosen,no
1534815323,e6171b1283ca2b9ece0dd74dcf7c30d1,Form,4,0,train,NULL,_REACTION_TIME_,7389
1534815323,e6171b1283ca2b9ece0dd74dcf7c30d1,Form,3,0,train,NULL,train_f_A_chosen,yes
1534815323,e6171b1283ca2b9ece0dd74dcf7c30d1,Form,3,0,train,NULL,train_f_B_chosen,yes
1534815323,e6171b1283ca2b9ece0dd74dcf7c30d1,Form,3,0,train,NULL,train_f_C_chosen,no
1534815323,e6171b1283ca2b9ece0dd74dcf7c30d1,Form,3,0,train,NULL,none_chosen,no
1534815323,e6171b1283ca2b9ece0dd74dcf7c30d1,Form,3,0,train,NULL,_REACTION_TIME_,5555
1534815323,e6171b1283ca2b9ece0dd74dcf7c30d1,Form,5,0,train_end,NULL,dummy_checkbox_,yes
1534815323,e6171b1283ca2b9ece0dd74dcf7c30d1,Form,5,0,train_end,NULL,_REACTION_TIME_,971
1534815323,e6171b1283ca2b9ece0dd74dcf7c30d1,Form,13,0,test,NULL,answers_reported,placeholderRoommate 1 says%2C "Cafe E."%2CRoommate 2 says%2C "Cafes A and B."%2CRoommate 3 says%2C "Cafe A."
1534815323,e6171b1283ca2b9ece0dd74dcf7c30d1,Form,13,0,test,NULL,coffee_A_chosen,no
1534815323,e6171b1283ca2b9ece0dd74dcf7c30d1,Form,13,0,test,NULL,coffee_B_chosen,yes
1534815323,e6171b1283ca2b9ece0dd74dcf7c30d1,Form,13,0,test,NULL,coffee_C_chosen,yes
1534815323,e6171b1283ca2b9ece0dd74dcf7c30d1,Form,13,0,test,NULL,no_one_chosen,no
1534815323,e6171b1283ca2b9ece0dd74dcf7c30d1,Form,13,0,test,NULL,_REACTION_TIME_,3235
1534815323,e6171b1283ca2b9ece0dd74dcf7c30d1,Form,21,0,ginz,NULL,ginzwhere_smallgrain_y_chosen,no
1534815323,e6171b1283ca2b9ece0dd74dcf7c30d1,Form,21,0,ginz,NULL,ginzwhere_smallgrain_n_chosen,yes
1534815323,e6171b1283ca2b9ece0dd74dcf7c30d1,Form,21,0,ginz,NULL,_REACTION_TIME_,4597
1534815323,e6171b1283ca2b9ece0dd74dcf7c30d1,Form,22,0,nst,NULL,NST_1a_chosen,no
1534815323,e6171b1283ca2b9ece0dd74dcf7c30d1,Form,22,0,nst,NULL,NST_1b_chosen,no
1534815323,e6171b1283ca2b9ece0dd74dcf7c30d1,Form,22,0,nst,NULL,NST_1c_chosen,yes
1534815323,e6171b1283ca2b9ece0dd74dcf7c30d1,Form,22,0,nst,NULL,NST_1d_chosen,no
1534815323,e6171b1283ca2b9ece0dd74dcf7c30d1,Form,22,0,nst,NULL,_REACTION_TIME_,1245
1534815323,e6171b1283ca2b9ece0dd74dcf7c30d1,Form,16,0,control,NULL,when_A_chosen,no
1534815323,e6171b1283ca2b9ece0dd74dcf7c30d1,Form,16,0,control,NULL,when_B_chosen,no
1534815323,e6171b1283ca2b9ece0dd74dcf7c30d1,Form,16,0,control,NULL,when_C_chosen,yes
1534815323,e6171b1283ca2b9ece0dd74dcf7c30d1,Form,16,0,control,NULL,none_chosen,no
1534815323,e6171b1283ca2b9ece0dd74dcf7c30d1,Form,16,0,control,NULL,_REACTION_TIME_,2135
1534815323,e6171b1283ca2b9ece0dd74dcf7c30d1,Form,12,0,test,NULL,answers_reported,placeholderRoommate 1 says%2C "Stall F."%2CRoommate 2 says%2C "Stalls A and B."%2CRoommate 3 says%2C "Stall E."
1534815323,e6171b1283ca2b9ece0dd74dcf7c30d1,Form,12,0,test,NULL,yarn_A_chosen,no
1534815323,e6171b1283ca2b9ece0dd74dcf7c30d1,Form,12,0,test,NULL,yarn_B_chosen,yes
1534815323,e6171b1283ca2b9ece0dd74dcf7c30d1,Form,12,0,test,NULL,yarn_C_chosen,no
1534815323,e6171b1283ca2b9ece0dd74dcf7c30d1,Form,12,0,test,NULL,no_one_chosen,no
1534815323,e6171b1283ca2b9ece0dd74dcf7c30d1,Form,12,0,test,NULL,_REACTION_TIME_,1572
1534815323,e6171b1283ca2b9ece0dd74dcf7c30d1,Form,20,0,ginz,NULL,ginzwho_smallgrain_y_chosen,no
1534815323,e6171b1283ca2b9ece0dd74dcf7c30d1,Form,20,0,ginz,NULL,ginzwho_smallgrain_n_chosen,yes
1534815323,e6171b1283ca2b9ece0dd74dcf7c30d1,Form,20,0,ginz,NULL,_REACTION_TIME_,2374
1534815323,e6171b1283ca2b9ece0dd74dcf7c30d1,Form,23,0,nst,NULL,NST_2a_chosen,no
1534815323,e6171b1283ca2b9ece0dd74dcf7c30d1,Form,23,0,nst,NULL,NST_2b_chosen,no
1534815323,e6171b1283ca2b9ece0dd74dcf7c30d1,Form,23,0,nst,NULL,NST_2c_chosen,no
1534815323,e6171b1283ca2b9ece0dd74dcf7c30d1,Form,23,0,nst,NULL,NST_2d_chosen,yes
1534815323,e6171b1283ca2b9ece0dd74dcf7c30d1,Form,23,0,nst,NULL,NST_2e_chosen,no
1534815323,e6171b1283ca2b9ece0dd74dcf7c30d1,Form,23,0,nst,NULL,_REACTION_TIME_,1990
1534815323,e6171b1283ca2b9ece0dd74dcf7c30d1,Form,9,0,test,NULL,answers_reported,placeholderFriend 1 says%2C "Bookstore F."%2CFriend 2 says%2C "Bookstores D and E."%2CFriend 3 says%2C "Bookstore A."
1534815323,e6171b1283ca2b9ece0dd74dcf7c30d1,Form,9,0,test,NULL,books_A_chosen,no
1534815323,e6171b1283ca2b9ece0dd74dcf7c30d1,Form,9,0,test,NULL,books_B_chosen,no
1534815323,e6171b1283ca2b9ece0dd74dcf7c30d1,Form,9,0,test,NULL,books_C_chosen,yes
1534815323,e6171b1283ca2b9ece0dd74dcf7c30d1,Form,9,0,test,NULL,no_one_chosen,no
1534815323,e6171b1283ca2b9ece0dd74dcf7c30d1,Form,9,0,test,NULL,_REACTION_TIME_,2283
1534815323,e6171b1283ca2b9ece0dd74dcf7c30d1,Form,15,0,control,NULL,what_A_chosen,no
1534815323,e6171b1283ca2b9ece0dd74dcf7c30d1,Form,15,0,control,NULL,what_B_chosen,no
1534815323,e6171b1283ca2b9ece0dd74dcf7c30d1,Form,15,0,control,NULL,what_C_chosen,yes
1534815323,e6171b1283ca2b9ece0dd74dcf7c30d1,Form,15,0,control,NULL,none_chosen,no
1534815323,e6171b1283ca2b9ece0dd74dcf7c30d1,Form,15,0,control,NULL,_REACTION_TIME_,2188
1534815323,e6171b1283ca2b9ece0dd74dcf7c30d1,Form,11,0,test,NULL,answers_reported,placeholderCoworker 1 says%2C "Dentists A and B."%2CCoworker 2 says%2C "Dentists D and E."%2CCoworker 3 says%2C "Dentist E."
1534815323,e6171b1283ca2b9ece0dd74dcf7c30d1,Form,11,0,test,NULL,dentist_A_chosen,no
1534815323,e6171b1283ca2b9ece0dd74dcf7c30d1,Form,11,0,test,NULL,dentist_B_chosen,yes
1534815323,e6171b1283ca2b9ece0dd74dcf7c30d1,Form,11,0,test,NULL,dentist_C_chosen,no
1534815323,e6171b1283ca2b9ece0dd74dcf7c30d1,Form,11,0,test,NULL,no_one_chosen,no
1534815323,e6171b1283ca2b9ece0dd74dcf7c30d1,Form,11,0,test,NULL,_REACTION_TIME_,1746
1534815323,e6171b1283ca2b9ece0dd74dcf7c30d1,Form,19,0,ginz,NULL,ginzwhere_largegrain_y_chosen,no
1534815323,e6171b1283ca2b9ece0dd74dcf7c30d1,Form,19,0,ginz,NULL,ginzwhere_largegrain_n_chosen,yes
1534815323,e6171b1283ca2b9ece0dd74dcf7c30d1,Form,19,0,ginz,NULL,_REACTION_TIME_,2164
1534815323,e6171b1283ca2b9ece0dd74dcf7c30d1,Form,25,0,nst,NULL,NST_4a_chosen,no
1534815323,e6171b1283ca2b9ece0dd74dcf7c30d1,Form,25,0,nst,NULL,NST_4b_chosen,yes
1534815323,e6171b1283ca2b9ece0dd74dcf7c30d1,Form,25,0,nst,NULL,_REACTION_TIME_,5614
1534815323,e6171b1283ca2b9ece0dd74dcf7c30d1,Form,14,0,control,NULL,why_A_chosen,no
1534815323,e6171b1283ca2b9ece0dd74dcf7c30d1,Form,14,0,control,NULL,why_B_chosen,no
1534815323,e6171b1283ca2b9ece0dd74dcf7c30d1,Form,14,0,control,NULL,why_C_chosen,yes
1534815323,e6171b1283ca2b9ece0dd74dcf7c30d1,Form,14,0,control,NULL,none_chosen,no
1534815323,e6171b1283ca2b9ece0dd74dcf7c30d1,Form,14,0,control,NULL,_REACTION_TIME_,4364
1534815323,e6171b1283ca2b9ece0dd74dcf7c30d1,Form,8,0,test,NULL,answers_reported,placeholderFriend 1 says%2C "Stores A and B."%2CFriend 2 says%2C "Store E."%2CFriend 3 says%2C "Stores D and E."
1534815323,e6171b1283ca2b9ece0dd74dcf7c30d1,Form,8,0,test,NULL,shoes_A_chosen,no
1534815323,e6171b1283ca2b9ece0dd74dcf7c30d1,Form,8,0,test,NULL,shoes_B_chosen,yes
1534815323,e6171b1283ca2b9ece0dd74dcf7c30d1,Form,8,0,test,NULL,shoes_C_chosen,no
1534815323,e6171b1283ca2b9ece0dd74dcf7c30d1,Form,8,0,test,NULL,no_one_chosen,no
1534815323,e6171b1283ca2b9ece0dd74dcf7c30d1,Form,8,0,test,NULL,_REACTION_TIME_,2235
1534815323,e6171b1283ca2b9ece0dd74dcf7c30d1,Form,10,0,test,NULL,answers_reported,placeholderFriend 1 says%2C "Stylists A and B."%2CFriend 2 says%2C "Stylist E."%2CFriend 3 says%2C "Stylist A."
1534815323,e6171b1283ca2b9ece0dd74dcf7c30d1,Form,10,0,test,NULL,hair_A_chosen,yes
1534815323,e6171b1283ca2b9ece0dd74dcf7c30d1,Form,10,0,test,NULL,hair_B_chosen,no
1534815323,e6171b1283ca2b9ece0dd74dcf7c30d1,Form,10,0,test,NULL,hair_C_chosen,yes
1534815323,e6171b1283ca2b9ece0dd74dcf7c30d1,Form,10,0,test,NULL,no_one_chosen,no
1534815323,e6171b1283ca2b9ece0dd74dcf7c30d1,Form,10,0,test,NULL,_REACTION_TIME_,4653
1534815323,e6171b1283ca2b9ece0dd74dcf7c30d1,Form,18,0,ginz,NULL,ginzwhere_largegrain_y_chosen,no
1534815323,e6171b1283ca2b9ece0dd74dcf7c30d1,Form,18,0,ginz,NULL,ginzwhere_largegrain_n_chosen,yes
1534815323,e6171b1283ca2b9ece0dd74dcf7c30d1,Form,18,0,ginz,NULL,_REACTION_TIME_,1365
1534815323,e6171b1283ca2b9ece0dd74dcf7c30d1,Form,24,0,nst,NULL,NST_3a_chosen,no
1534815323,e6171b1283ca2b9ece0dd74dcf7c30d1,Form,24,0,nst,NULL,NST_3b_chosen,yes
1534815323,e6171b1283ca2b9ece0dd74dcf7c30d1,Form,24,0,nst,NULL,NST_3c_chosen,no
1534815323,e6171b1283ca2b9ece0dd74dcf7c30d1,Form,24,0,nst,NULL,NST_3d_chosen,yes
1534815323,e6171b1283ca2b9ece0dd74dcf7c30d1,Form,24,0,nst,NULL,NST_3e_chosen,no
1534815323,e6171b1283ca2b9ece0dd74dcf7c30d1,Form,24,0,nst,NULL,_REACTION_TIME_,2182
1534815323,e6171b1283ca2b9ece0dd74dcf7c30d1,Form,17,0,control,NULL,how_guest_A_chosen,no
1534815323,e6171b1283ca2b9ece0dd74dcf7c30d1,Form,17,0,control,NULL,how_guest_B_chosen,yes
1534815323,e6171b1283ca2b9ece0dd74dcf7c30d1,Form,17,0,control,NULL,how_guest_C_chosen,no
1534815323,e6171b1283ca2b9ece0dd74dcf7c30d1,Form,17,0,control,NULL,none_chosen,no
1534815323,e6171b1283ca2b9ece0dd74dcf7c30d1,Form,17,0,control,NULL,_REACTION_TIME_,1836
1534815323,e6171b1283ca2b9ece0dd74dcf7c30d1,Form,6,0,exit_quest,NULL,know_conditons,brunch in town
1534815323,e6171b1283ca2b9ece0dd74dcf7c30d1,Form,6,0,exit_quest,NULL,difficult,none
1534815323,e6171b1283ca2b9ece0dd74dcf7c30d1,Form,6,0,exit_quest,NULL,anything_else,nothing else
1534815323,e6171b1283ca2b9ece0dd74dcf7c30d1,Form,6,0,exit_quest,NULL,dummy_checkbox_,yes
1534815323,e6171b1283ca2b9ece0dd74dcf7c30d1,Form,6,0,exit_quest,NULL,_REACTION_TIME_,35049
#
# Results on Tuesday August 21 2018 01:35:47 UTC.
# USER AGENT: Mozilla/5.0 (Macintosh; Intel Mac OS X 10.13; rv:59.0) Gecko/20100101 Firefox/59.0
# Design number was non-random = 2
#
# Columns below this comment are as follows:
# 1. Time results were received.
# 2. MD5 hash of participant's IP address.
# 3. Controller name.
# 4. Item number.
# 5. Element number.
# 6. Type.
# 7. Group.
# 8. Field name.
# 9. Field value.
1534815347,b99287dc1076b33e50d9aaaac0a52ae6,Form,2,0,consent,NULL,subject_id,A1XGI8153WBWFQ
1534815347,b99287dc1076b33e50d9aaaac0a52ae6,Form,2,0,consent,NULL,native_lang,Albanian
1534815347,b99287dc1076b33e50d9aaaac0a52ae6,Form,2,0,consent,NULL,age,28
1534815347,b99287dc1076b33e50d9aaaac0a52ae6,Form,2,0,consent,NULL,consent_checkbox_,yes
1534815347,b99287dc1076b33e50d9aaaac0a52ae6,Form,2,0,consent,NULL,dummy_checkbox_,yes
1534815347,b99287dc1076b33e50d9aaaac0a52ae6,Form,2,0,consent,NULL,sex,male
1534815347,b99287dc1076b33e50d9aaaac0a52ae6,Form,2,0,consent,NULL,_REACTION_TIME_,45536
1534815347,b99287dc1076b33e50d9aaaac0a52ae6,Form,1,0,instructions,NULL,dummy_checkbox_,yes
1534815347,b99287dc1076b33e50d9aaaac0a52ae6,Form,1,0,instructions,NULL,_REACTION_TIME_,6196
1534815347,b99287dc1076b33e50d9aaaac0a52ae6,Form,4,0,train,NULL,train_m_A_chosen,no
1534815347,b99287dc1076b33e50d9aaaac0a52ae6,Form,4,0,train,NULL,train_m_B_chosen,no
1534815347,b99287dc1076b33e50d9aaaac0a52ae6,Form,4,0,train,NULL,train_m_C_chosen,yes
1534815347,b99287dc1076b33e50d9aaaac0a52ae6,Form,4,0,train,NULL,none_chosen,no
1534815347,b99287dc1076b33e50d9aaaac0a52ae6,Form,4,0,train,NULL,_REACTION_TIME_,29178
1534815347,b99287dc1076b33e50d9aaaac0a52ae6,Form,3,0,train,NULL,train_f_A_chosen,no
1534815347,b99287dc1076b33e50d9aaaac0a52ae6,Form,3,0,train,NULL,train_f_B_chosen,yes
1534815347,b99287dc1076b33e50d9aaaac0a52ae6,Form,3,0,train,NULL,train_f_C_chosen,no
1534815347,b99287dc1076b33e50d9aaaac0a52ae6,Form,3,0,train,NULL,none_chosen,no
1534815347,b99287dc1076b33e50d9aaaac0a52ae6,Form,3,0,train,NULL,_REACTION_TIME_,9034
1534815347,b99287dc1076b33e50d9aaaac0a52ae6,Form,5,0,train_end,NULL,dummy_checkbox_,yes
1534815347,b99287dc1076b33e50d9aaaac0a52ae6,Form,5,0,train_end,NULL,_REACTION_TIME_,2830
1534815347,b99287dc1076b33e50d9aaaac0a52ae6,Form,11,0,test,NULL,answers_reported,placeholderCoworker 1 says%2C "Dentists D and E."%2CCoworker 2 says%2C "Dentist E."%2CCoworker 3 says%2C "Dentist F."
1534815347,b99287dc1076b33e50d9aaaac0a52ae6,Form,11,0,test,NULL,dentist_A_chosen,no
1534815347,b99287dc1076b33e50d9aaaac0a52ae6,Form,11,0,test,NULL,dentist_B_chosen,yes
1534815347,b99287dc1076b33e50d9aaaac0a52ae6,Form,11,0,test,NULL,dentist_C_chosen,no
1534815347,b99287dc1076b33e50d9aaaac0a52ae6,Form,11,0,test,NULL,no_one_chosen,no
1534815347,b99287dc1076b33e50d9aaaac0a52ae6,Form,11,0,test,NULL,_REACTION_TIME_,17918
1534815347,b99287dc1076b33e50d9aaaac0a52ae6,Form,18,0,ginz,NULL,ginzwhere_largegrain_y_chosen,yes
1534815347,b99287dc1076b33e50d9aaaac0a52ae6,Form,18,0,ginz,NULL,ginzwhere_largegrain_n_chosen,no
1534815347,b99287dc1076b33e50d9aaaac0a52ae6,Form,18,0,ginz,NULL,_REACTION_TIME_,10278
1534815347,b99287dc1076b33e50d9aaaac0a52ae6,Form,9,0,test,NULL,answers_reported,placeholderFriend 1 says%2C "Bookstores A and B."%2CFriend 2 says%2C "Bookstore E."%2CFriend 3 says%2C "Bookstore A."
1534815347,b99287dc1076b33e50d9aaaac0a52ae6,Form,9,0,test,NULL,books_A_chosen,no
1534815347,b99287dc1076b33e50d9aaaac0a52ae6,Form,9,0,test,NULL,books_B_chosen,yes
1534815347,b99287dc1076b33e50d9aaaac0a52ae6,Form,9,0,test,NULL,books_C_chosen,no
1534815347,b99287dc1076b33e50d9aaaac0a52ae6,Form,9,0,test,NULL,no_one_chosen,no
1534815347,b99287dc1076b33e50d9aaaac0a52ae6,Form,9,0,test,NULL,_REACTION_TIME_,2482
1534815347,b99287dc1076b33e50d9aaaac0a52ae6,Form,22,0,nst,NULL,NST_1a_chosen,no
1534815347,b99287dc1076b33e50d9aaaac0a52ae6,Form,22,0,nst,NULL,NST_1b_chosen,no
1534815347,b99287dc1076b33e50d9aaaac0a52ae6,Form,22,0,nst,NULL,NST_1c_chosen,yes
1534815347,b99287dc1076b33e50d9aaaac0a52ae6,Form,22,0,nst,NULL,NST_1d_chosen,no
1534815347,b99287dc1076b33e50d9aaaac0a52ae6,Form,22,0,nst,NULL,_REACTION_TIME_,2508
1534815347,b99287dc1076b33e50d9aaaac0a52ae6,Form,14,0,control,NULL,why_A_chosen,no
1534815347,b99287dc1076b33e50d9aaaac0a52ae6,Form,14,0,control,NULL,why_B_chosen,no
1534815347,b99287dc1076b33e50d9aaaac0a52ae6,Form,14,0,control,NULL,why_C_chosen,yes
1534815347,b99287dc1076b33e50d9aaaac0a52ae6,Form,14,0,control,NULL,none_chosen,no
1534815347,b99287dc1076b33e50d9aaaac0a52ae6,Form,14,0,control,NULL,_REACTION_TIME_,5128
1534815347,b99287dc1076b33e50d9aaaac0a52ae6,Form,21,0,ginz,NULL,ginzwhere_smallgrain_y_chosen,yes
1534815347,b99287dc1076b33e50d9aaaac0a52ae6,Form,21,0,ginz,NULL,ginzwhere_smallgrain_n_chosen,no
1534815347,b99287dc1076b33e50d9aaaac0a52ae6,Form,21,0,ginz,NULL,_REACTION_TIME_,3934
1534815347,b99287dc1076b33e50d9aaaac0a52ae6,Form,12,0,test,NULL,answers_reported,placeholderRoommate 1 says%2C "Stalls A%2C B%2C C%2C D and E."%2CRoommate 2 says%2C "Stalls D and E."%2CRoommate 3 says%2C "Stall A."
1534815347,b99287dc1076b33e50d9aaaac0a52ae6,Form,12,0,test,NULL,yarn_A_chosen,no
1534815347,b99287dc1076b33e50d9aaaac0a52ae6,Form,12,0,test,NULL,yarn_B_chosen,yes
1534815347,b99287dc1076b33e50d9aaaac0a52ae6,Form,12,0,test,NULL,yarn_C_chosen,no
1534815347,b99287dc1076b33e50d9aaaac0a52ae6,Form,12,0,test,NULL,no_one_chosen,no
1534815347,b99287dc1076b33e50d9aaaac0a52ae6,Form,12,0,test,NULL,_REACTION_TIME_,2518
1534815347,b99287dc1076b33e50d9aaaac0a52ae6,Form,23,0,nst,NULL,NST_2a_chosen,no
1534815347,b99287dc1076b33e50d9aaaac0a52ae6,Form,23,0,nst,NULL,NST_2b_chosen,yes
1534815347,b99287dc1076b33e50d9aaaac0a52ae6,Form,23,0,nst,NULL,NST_2c_chosen,yes
1534815347,b99287dc1076b33e50d9aaaac0a52ae6,Form,23,0,nst,NULL,NST_2d_chosen,no
1534815347,b99287dc1076b33e50d9aaaac0a52ae6,Form,23,0,nst,NULL,NST_2e_chosen,no
1534815347,b99287dc1076b33e50d9aaaac0a52ae6,Form,23,0,nst,NULL,_REACTION_TIME_,10652
1534815347,b99287dc1076b33e50d9aaaac0a52ae6,Form,10,0,test,NULL,answers_reported,placeholderFriend 1 says%2C "Stylist E."%2CFriend 2 says%2C "Stylist F."%2CFriend 3 says%2C "Stylists D and E."
1534815347,b99287dc1076b33e50d9aaaac0a52ae6,Form,10,0,test,NULL,hair_A_chosen,no
1534815347,b99287dc1076b33e50d9aaaac0a52ae6,Form,10,0,test,NULL,hair_B_chosen,no
1534815347,b99287dc1076b33e50d9aaaac0a52ae6,Form,10,0,test,NULL,hair_C_chosen,yes
1534815347,b99287dc1076b33e50d9aaaac0a52ae6,Form,10,0,test,NULL,no_one_chosen,no
1534815347,b99287dc1076b33e50d9aaaac0a52ae6,Form,10,0,test,NULL,_REACTION_TIME_,2536
1534815347,b99287dc1076b33e50d9aaaac0a52ae6,Form,15,0,control,NULL,what_A_chosen,no
1534815347,b99287dc1076b33e50d9aaaac0a52ae6,Form,15,0,control,NULL,what_B_chosen,no
1534815347,b99287dc1076b33e50d9aaaac0a52ae6,Form,15,0,control,NULL,what_C_chosen,yes
1534815347,b99287dc1076b33e50d9aaaac0a52ae6,Form,15,0,control,NULL,none_chosen,no
1534815347,b99287dc1076b33e50d9aaaac0a52ae6,Form,15,0,control,NULL,_REACTION_TIME_,4576
1534815347,b99287dc1076b33e50d9aaaac0a52ae6,Form,19,0,ginz,NULL,ginzwhere_largegrain_y_chosen,yes
1534815347,b99287dc1076b33e50d9aaaac0a52ae6,Form,19,0,ginz,NULL,ginzwhere_largegrain_n_chosen,no
1534815347,b99287dc1076b33e50d9aaaac0a52ae6,Form,19,0,ginz,NULL,_REACTION_TIME_,5804
1534815347,b99287dc1076b33e50d9aaaac0a52ae6,Form,8,0,test,NULL,answers_reported,placeholderFriend 1 says%2C "Store A."%2CFriend 2 says%2C "Stores D and E."%2CFriend 3 says%2C "Store E."
1534815347,b99287dc1076b33e50d9aaaac0a52ae6,Form,8,0,test,NULL,shoes_A_chosen,no
1534815347,b99287dc1076b33e50d9aaaac0a52ae6,Form,8,0,test,NULL,shoes_B_chosen,yes
1534815347,b99287dc1076b33e50d9aaaac0a52ae6,Form,8,0,test,NULL,shoes_C_chosen,no
1534815347,b99287dc1076b33e50d9aaaac0a52ae6,Form,8,0,test,NULL,no_one_chosen,no
1534815347,b99287dc1076b33e50d9aaaac0a52ae6,Form,8,0,test,NULL,_REACTION_TIME_,3846
1534815347,b99287dc1076b33e50d9aaaac0a52ae6,Form,24,0,nst,NULL,NST_3a_chosen,no
1534815347,b99287dc1076b33e50d9aaaac0a52ae6,Form,24,0,nst,NULL,NST_3b_chosen,yes
1534815347,b99287dc1076b33e50d9aaaac0a52ae6,Form,24,0,nst,NULL,NST_3c_chosen,yes
1534815347,b99287dc1076b33e50d9aaaac0a52ae6,Form,24,0,nst,NULL,NST_3d_chosen,no
1534815347,b99287dc1076b33e50d9aaaac0a52ae6,Form,24,0,nst,NULL,NST_3e_chosen,no
1534815347,b99287dc1076b33e50d9aaaac0a52ae6,Form,24,0,nst,NULL,_REACTION_TIME_,5454
1534815347,b99287dc1076b33e50d9aaaac0a52ae6,Form,17,0,control,NULL,how_guest_A_chosen,no
1534815347,b99287dc1076b33e50d9aaaac0a52ae6,Form,17,0,control,NULL,how_guest_B_chosen,yes
1534815347,b99287dc1076b33e50d9aaaac0a52ae6,Form,17,0,control,NULL,how_guest_C_chosen,no
1534815347,b99287dc1076b33e50d9aaaac0a52ae6,Form,17,0,control,NULL,none_chosen,no
1534815347,b99287dc1076b33e50d9aaaac0a52ae6,Form,17,0,control,NULL,_REACTION_TIME_,2156
1534815347,b99287dc1076b33e50d9aaaac0a52ae6,Form,13,0,test,NULL,answers_reported,placeholderRoommate 1 says%2C "Cafes A and B."%2CRoommate 2 says%2C "Cafe E."%2CRoommate 3 says%2C "Cafes D and E."
1534815347,b99287dc1076b33e50d9aaaac0a52ae6,Form,13,0,test,NULL,coffee_A_chosen,no
1534815347,b99287dc1076b33e50d9aaaac0a52ae6,Form,13,0,test,NULL,coffee_B_chosen,no
1534815347,b99287dc1076b33e50d9aaaac0a52ae6,Form,13,0,test,NULL,coffee_C_chosen,yes
1534815347,b99287dc1076b33e50d9aaaac0a52ae6,Form,13,0,test,NULL,no_one_chosen,no
1534815347,b99287dc1076b33e50d9aaaac0a52ae6,Form,13,0,test,NULL,_REACTION_TIME_,2582
1534815347,b99287dc1076b33e50d9aaaac0a52ae6,Form,20,0,ginz,NULL,ginzwho_smallgrain_y_chosen,yes
1534815347,b99287dc1076b33e50d9aaaac0a52ae6,Form,20,0,ginz,NULL,ginzwho_smallgrain_n_chosen,no
1534815347,b99287dc1076b33e50d9aaaac0a52ae6,Form,20,0,ginz,NULL,_REACTION_TIME_,4122
1534815347,b99287dc1076b33e50d9aaaac0a52ae6,Form,25,0,nst,NULL,NST_4a_chosen,no
1534815347,b99287dc1076b33e50d9aaaac0a52ae6,Form,25,0,nst,NULL,NST_4b_chosen,yes
1534815347,b99287dc1076b33e50d9aaaac0a52ae6,Form,25,0,nst,NULL,_REACTION_TIME_,9572
1534815347,b99287dc1076b33e50d9aaaac0a52ae6,Form,16,0,control,NULL,when_A_chosen,no
1534815347,b99287dc1076b33e50d9aaaac0a52ae6,Form,16,0,control,NULL,when_B_chosen,no
1534815347,b99287dc1076b33e50d9aaaac0a52ae6,Form,16,0,control,NULL,when_C_chosen,yes
1534815347,b99287dc1076b33e50d9aaaac0a52ae6,Form,16,0,control,NULL,none_chosen,no
1534815347,b99287dc1076b33e50d9aaaac0a52ae6,Form,16,0,control,NULL,_REACTION_TIME_,2276
1534815347,b99287dc1076b33e50d9aaaac0a52ae6,Form,6,0,exit_quest,NULL,know_conditons,I would answer exactly the same way because the questions are similar
1534815347,b99287dc1076b33e50d9aaaac0a52ae6,Form,6,0,exit_quest,NULL,difficult,No%2C the task was easy.
1534815347,b99287dc1076b33e50d9aaaac0a52ae6,Form,6,0,exit_quest,NULL,anything_else,No comment.
1534815347,b99287dc1076b33e50d9aaaac0a52ae6,Form,6,0,exit_quest,NULL,dummy_checkbox_,yes
1534815347,b99287dc1076b33e50d9aaaac0a52ae6,Form,6,0,exit_quest,NULL,_REACTION_TIME_,44370
#
# Results on Tuesday August 21 2018 01:36:58 UTC.
# USER AGENT: Mozilla/5.0 (Windows NT 5.1; rv:52.0) Gecko/20100101 Firefox/52.0
# Design number was non-random = 2
#
# Columns below this comment are as follows:
# 1. Time results were received.
# 2. MD5 hash of participant's IP address.
# 3. Controller name.
# 4. Item number.
# 5. Element number.
# 6. Type.
# 7. Group.
# 8. Field name.
# 9. Field value.
1534815419,78478a5975b4ea5b665c764ac8d9b705,Form,2,0,consent,NULL,subject_id,A14NSVH4W27CK0
1534815419,78478a5975b4ea5b665c764ac8d9b705,Form,2,0,consent,NULL,native_lang,english
1534815419,78478a5975b4ea5b665c764ac8d9b705,Form,2,0,consent,NULL,age,28
1534815419,78478a5975b4ea5b665c764ac8d9b705,Form,2,0,consent,NULL,consent_checkbox_,yes
1534815419,78478a5975b4ea5b665c764ac8d9b705,Form,2,0,consent,NULL,dummy_checkbox_,yes
1534815419,78478a5975b4ea5b665c764ac8d9b705,Form,2,0,consent,NULL,sex,male
1534815419,78478a5975b4ea5b665c764ac8d9b705,Form,2,0,consent,NULL,_REACTION_TIME_,55742
1534815419,78478a5975b4ea5b665c764ac8d9b705,Form,1,0,instructions,NULL,dummy_checkbox_,yes
1534815419,78478a5975b4ea5b665c764ac8d9b705,Form,1,0,instructions,NULL,_REACTION_TIME_,4102
1534815419,78478a5975b4ea5b665c764ac8d9b705,Form,4,0,train,NULL,train_m_A_chosen,no
1534815419,78478a5975b4ea5b665c764ac8d9b705,Form,4,0,train,NULL,train_m_B_chosen,yes
1534815419,78478a5975b4ea5b665c764ac8d9b705,Form,4,0,train,NULL,train_m_C_chosen,no
1534815419,78478a5975b4ea5b665c764ac8d9b705,Form,4,0,train,NULL,none_chosen,no
1534815419,78478a5975b4ea5b665c764ac8d9b705,Form,4,0,train,NULL,_REACTION_TIME_,15274
1534815419,78478a5975b4ea5b665c764ac8d9b705,Form,3,0,train,NULL,train_f_A_chosen,no
1534815419,78478a5975b4ea5b665c764ac8d9b705,Form,3,0,train,NULL,train_f_B_chosen,yes
1534815419,78478a5975b4ea5b665c764ac8d9b705,Form,3,0,train,NULL,train_f_C_chosen,no
1534815419,78478a5975b4ea5b665c764ac8d9b705,Form,3,0,train,NULL,none_chosen,no
1534815419,78478a5975b4ea5b665c764ac8d9b705,Form,3,0,train,NULL,_REACTION_TIME_,6292
1534815419,78478a5975b4ea5b665c764ac8d9b705,Form,5,0,train_end,NULL,dummy_checkbox_,yes
1534815419,78478a5975b4ea5b665c764ac8d9b705,Form,5,0,train_end,NULL,_REACTION_TIME_,2408
1534815419,78478a5975b4ea5b665c764ac8d9b705,Form,13,0,test,NULL,answers_reported,placeholderRoommate 1 says%2C "Cafe E."%2CRoommate 2 says%2C "Cafe F."%2CRoommate 3 says%2C "Cafes A and B."
1534815419,78478a5975b4ea5b665c764ac8d9b705,Form,13,0,test,NULL,coffee_A_chosen,no
1534815419,78478a5975b4ea5b665c764ac8d9b705,Form,13,0,test,NULL,coffee_B_chosen,no
1534815419,78478a5975b4ea5b665c764ac8d9b705,Form,13,0,test,NULL,coffee_C_chosen,yes
1534815419,78478a5975b4ea5b665c764ac8d9b705,Form,13,0,test,NULL,no_one_chosen,no
1534815419,78478a5975b4ea5b665c764ac8d9b705,Form,13,0,test,NULL,_REACTION_TIME_,6092
1534815419,78478a5975b4ea5b665c764ac8d9b705,Form,22,0,nst,NULL,NST_1a_chosen,yes
1534815419,78478a5975b4ea5b665c764ac8d9b705,Form,22,0,nst,NULL,NST_1b_chosen,no
1534815419,78478a5975b4ea5b665c764ac8d9b705,Form,22,0,nst,NULL,NST_1c_chosen,no
1534815419,78478a5975b4ea5b665c764ac8d9b705,Form,22,0,nst,NULL,NST_1d_chosen,no
1534815419,78478a5975b4ea5b665c764ac8d9b705,Form,22,0,nst,NULL,_REACTION_TIME_,10506
1534815419,78478a5975b4ea5b665c764ac8d9b705,Form,8,0,test,NULL,answers_reported,placeholderFriend 1 says%2C "Store A."%2CFriend 2 says%2C "Stores A and B."%2CFriend 3 says%2C "Stores A%2C B%2C C%2C D and E."
1534815419,78478a5975b4ea5b665c764ac8d9b705,Form,8,0,test,NULL,shoes_A_chosen,no
1534815419,78478a5975b4ea5b665c764ac8d9b705,Form,8,0,test,NULL,shoes_B_chosen,no
1534815419,78478a5975b4ea5b665c764ac8d9b705,Form,8,0,test,NULL,shoes_C_chosen,yes
1534815419,78478a5975b4ea5b665c764ac8d9b705,Form,8,0,test,NULL,no_one_chosen,no
1534815419,78478a5975b4ea5b665c764ac8d9b705,Form,8,0,test,NULL,_REACTION_TIME_,4060
1534815419,78478a5975b4ea5b665c764ac8d9b705,Form,19,0,ginz,NULL,ginzwhere_largegrain_y_chosen,no
1534815419,78478a5975b4ea5b665c764ac8d9b705,Form,19,0,ginz,NULL,ginzwhere_largegrain_n_chosen,yes
1534815419,78478a5975b4ea5b665c764ac8d9b705,Form,19,0,ginz,NULL,_REACTION_TIME_,7108
1534815419,78478a5975b4ea5b665c764ac8d9b705,Form,17,0,control,NULL,how_guest_A_chosen,no
1534815419,78478a5975b4ea5b665c764ac8d9b705,Form,17,0,control,NULL,how_guest_B_chosen,no
1534815419,78478a5975b4ea5b665c764ac8d9b705,Form,17,0,control,NULL,how_guest_C_chosen,yes
1534815419,78478a5975b4ea5b665c764ac8d9b705,Form,17,0,control,NULL,none_chosen,no
1534815419,78478a5975b4ea5b665c764ac8d9b705,Form,17,0,control,NULL,_REACTION_TIME_,3460
1534815419,78478a5975b4ea5b665c764ac8d9b705,Form,25,0,nst,NULL,NST_4a_chosen,no
1534815419,78478a5975b4ea5b665c764ac8d9b705,Form,25,0,nst,NULL,NST_4b_chosen,yes
1534815419,78478a5975b4ea5b665c764ac8d9b705,Form,25,0,nst,NULL,_REACTION_TIME_,7144
1534815419,78478a5975b4ea5b665c764ac8d9b705,Form,12,0,test,NULL,answers_reported,placeholderRoommate 1 says%2C "Stall A."%2CRoommate 2 says%2C "Stall E."%2CRoommate 3 says%2C "Stalls A and B."
1534815419,78478a5975b4ea5b665c764ac8d9b705,Form,12,0,test,NULL,yarn_A_chosen,no
1534815419,78478a5975b4ea5b665c764ac8d9b705,Form,12,0,test,NULL,yarn_B_chosen,no
1534815419,78478a5975b4ea5b665c764ac8d9b705,Form,12,0,test,NULL,yarn_C_chosen,yes
1534815419,78478a5975b4ea5b665c764ac8d9b705,Form,12,0,test,NULL,no_one_chosen,no
1534815419,78478a5975b4ea5b665c764ac8d9b705,Form,12,0,test,NULL,_REACTION_TIME_,4448
1534815419,78478a5975b4ea5b665c764ac8d9b705,Form,21,0,ginz,NULL,ginzwhere_smallgrain_y_chosen,yes
1534815419,78478a5975b4ea5b665c764ac8d9b705,Form,21,0,ginz,NULL,ginzwhere_smallgrain_n_chosen,no
1534815419,78478a5975b4ea5b665c764ac8d9b705,Form,21,0,ginz,NULL,_REACTION_TIME_,11032
1534815419,78478a5975b4ea5b665c764ac8d9b705,Form,9,0,test,NULL,answers_reported,placeholderFriend 1 says%2C "Bookstore E."%2CFriend 2 says%2C "Bookstore F."%2CFriend 3 says%2C "Bookstores D and E."
1534815419,78478a5975b4ea5b665c764ac8d9b705,Form,9,0,test,NULL,books_A_chosen,no
1534815419,78478a5975b4ea5b665c764ac8d9b705,Form,9,0,test,NULL,books_B_chosen,yes
1534815419,78478a5975b4ea5b665c764ac8d9b705,Form,9,0,test,NULL,books_C_chosen,no
1534815419,78478a5975b4ea5b665c764ac8d9b705,Form,9,0,test,NULL,no_one_chosen,no
1534815419,78478a5975b4ea5b665c764ac8d9b705,Form,9,0,test,NULL,_REACTION_TIME_,4500
1534815419,78478a5975b4ea5b665c764ac8d9b705,Form,15,0,control,NULL,what_A_chosen,no
1534815419,78478a5975b4ea5b665c764ac8d9b705,Form,15,0,control,NULL,what_B_chosen,yes
1534815419,78478a5975b4ea5b665c764ac8d9b705,Form,15,0,control,NULL,what_C_chosen,no
1534815419,78478a5975b4ea5b665c764ac8d9b705,Form,15,0,control,NULL,none_chosen,no
1534815419,78478a5975b4ea5b665c764ac8d9b705,Form,15,0,control,NULL,_REACTION_TIME_,6292
1534815419,78478a5975b4ea5b665c764ac8d9b705,Form,24,0,nst,NULL,NST_3a_chosen,yes
1534815419,78478a5975b4ea5b665c764ac8d9b705,Form,24,0,nst,NULL,NST_3b_chosen,no
1534815419,78478a5975b4ea5b665c764ac8d9b705,Form,24,0,nst,NULL,NST_3c_chosen,no
1534815419,78478a5975b4ea5b665c764ac8d9b705,Form,24,0,nst,NULL,NST_3d_chosen,no
1534815419,78478a5975b4ea5b665c764ac8d9b705,Form,24,0,nst,NULL,NST_3e_chosen,no
1534815419,78478a5975b4ea5b665c764ac8d9b705,Form,24,0,nst,NULL,_REACTION_TIME_,19826
1534815419,78478a5975b4ea5b665c764ac8d9b705,Form,10,0,test,NULL,answers_reported,placeholderFriend 1 says%2C "Stylist F."%2CFriend 2 says%2C "Stylists A and B."%2CFriend 3 says%2C "Stylists D and E."
1534815419,78478a5975b4ea5b665c764ac8d9b705,Form,10,0,test,NULL,hair_A_chosen,no
1534815419,78478a5975b4ea5b665c764ac8d9b705,Form,10,0,test,NULL,hair_B_chosen,no
1534815419,78478a5975b4ea5b665c764ac8d9b705,Form,10,0,test,NULL,hair_C_chosen,no
1534815419,78478a5975b4ea5b665c764ac8d9b705,Form,10,0,test,NULL,no_one_chosen,yes
1534815419,78478a5975b4ea5b665c764ac8d9b705,Form,10,0,test,NULL,_REACTION_TIME_,3896
1534815419,78478a5975b4ea5b665c764ac8d9b705,Form,20,0,ginz,NULL,ginzwho_smallgrain_y_chosen,no
1534815419,78478a5975b4ea5b665c764ac8d9b705,Form,20,0,ginz,NULL,ginzwho_smallgrain_n_chosen,yes
1534815419,78478a5975b4ea5b665c764ac8d9b705,Form,20,0,ginz,NULL,_REACTION_TIME_,2622
1534815419,78478a5975b4ea5b665c764ac8d9b705,Form,16,0,control,NULL,when_A_chosen,no
1534815419,78478a5975b4ea5b665c764ac8d9b705,Form,16,0,control,NULL,when_B_chosen,yes
1534815419,78478a5975b4ea5b665c764ac8d9b705,Form,16,0,control,NULL,when_C_chosen,no
1534815419,78478a5975b4ea5b665c764ac8d9b705,Form,16,0,control,NULL,none_chosen,no
1534815419,78478a5975b4ea5b665c764ac8d9b705,Form,16,0,control,NULL,_REACTION_TIME_,2450
1534815419,78478a5975b4ea5b665c764ac8d9b705,Form,11,0,test,NULL,answers_reported,placeholderCoworker 1 says%2C "Dentists A%2C B%2C C%2C D and E."%2CCoworker 2 says%2C "Dentist F."%2CCoworker 3 says%2C "Dentist E."
1534815419,78478a5975b4ea5b665c764ac8d9b705,Form,11,0,test,NULL,dentist_A_chosen,no
1534815419,78478a5975b4ea5b665c764ac8d9b705,Form,11,0,test,NULL,dentist_B_chosen,no
1534815419,78478a5975b4ea5b665c764ac8d9b705,Form,11,0,test,NULL,dentist_C_chosen,yes
1534815419,78478a5975b4ea5b665c764ac8d9b705,Form,11,0,test,NULL,no_one_chosen,no
1534815419,78478a5975b4ea5b665c764ac8d9b705,Form,11,0,test,NULL,_REACTION_TIME_,3294
1534815419,78478a5975b4ea5b665c764ac8d9b705,Form,23,0,nst,NULL,NST_2a_chosen,yes
1534815419,78478a5975b4ea5b665c764ac8d9b705,Form,23,0,nst,NULL,NST_2b_chosen,no
1534815419,78478a5975b4ea5b665c764ac8d9b705,Form,23,0,nst,NULL,NST_2c_chosen,no
1534815419,78478a5975b4ea5b665c764ac8d9b705,Form,23,0,nst,NULL,NST_2d_chosen,no
1534815419,78478a5975b4ea5b665c764ac8d9b705,Form,23,0,nst,NULL,NST_2e_chosen,no
1534815419,78478a5975b4ea5b665c764ac8d9b705,Form,23,0,nst,NULL,_REACTION_TIME_,2780
1534815419,78478a5975b4ea5b665c764ac8d9b705,Form,18,0,ginz,NULL,ginzwhere_largegrain_y_chosen,no
1534815419,78478a5975b4ea5b665c764ac8d9b705,Form,18,0,ginz,NULL,ginzwhere_largegrain_n_chosen,yes
1534815419,78478a5975b4ea5b665c764ac8d9b705,Form,18,0,ginz,NULL,_REACTION_TIME_,7952
1534815419,78478a5975b4ea5b665c764ac8d9b705,Form,14,0,control,NULL,why_A_chosen,no
1534815419,78478a5975b4ea5b665c764ac8d9b705,Form,14,0,control,NULL,why_B_chosen,no
1534815419,78478a5975b4ea5b665c764ac8d9b705,Form,14,0,control,NULL,why_C_chosen,no
1534815419,78478a5975b4ea5b665c764ac8d9b705,Form,14,0,control,NULL,none_chosen,yes
1534815419,78478a5975b4ea5b665c764ac8d9b705,Form,14,0,control,NULL,_REACTION_TIME_,2278
1534815419,78478a5975b4ea5b665c764ac8d9b705,Form,6,0,exit_quest,NULL,know_conditons,i would tell her to go to the parekway cafe down the street.
1534815419,78478a5975b4ea5b665c764ac8d9b705,Form,6,0,exit_quest,NULL,difficult,no it was just long
1534815419,78478a5975b4ea5b665c764ac8d9b705,Form,6,0,exit_quest,NULL,anything_else,
1534815419,78478a5975b4ea5b665c764ac8d9b705,Form,6,0,exit_quest,NULL,dummy_checkbox_,yes
1534815419,78478a5975b4ea5b665c764ac8d9b705,Form,6,0,exit_quest,NULL,_REACTION_TIME_,65062
#
# Results on Tuesday August 21 2018 01:37:36 UTC.
# USER AGENT: Mozilla/5.0 (Macintosh; Intel Mac OS X 10_11_6) AppleWebKit/537.36 (KHTML, like Gecko) Chrome/68.0.3440.106 Safari/537.36
# Design number was non-random = 2
#
# Columns below this comment are as follows:
# 1. Time results were received.
# 2. MD5 hash of participant's IP address.
# 3. Controller name.
# 4. Item number.
# 5. Element number.
# 6. Type.
# 7. Group.
# 8. Field name.
# 9. Field value.
1534815456,d45e0c7c6927eab31795e2d736a57aca,Form,2,0,consent,NULL,subject_id,ALDWVFR4I0V2D
1534815456,d45e0c7c6927eab31795e2d736a57aca,Form,2,0,consent,NULL,native_lang,English
1534815456,d45e0c7c6927eab31795e2d736a57aca,Form,2,0,consent,NULL,age,28
1534815456,d45e0c7c6927eab31795e2d736a57aca,Form,2,0,consent,NULL,consent_checkbox_,yes
1534815456,d45e0c7c6927eab31795e2d736a57aca,Form,2,0,consent,NULL,dummy_checkbox_,yes
1534815456,d45e0c7c6927eab31795e2d736a57aca,Form,2,0,consent,NULL,sex,male
1534815456,d45e0c7c6927eab31795e2d736a57aca,Form,2,0,consent,NULL,_REACTION_TIME_,17697
1534815456,d45e0c7c6927eab31795e2d736a57aca,Form,1,0,instructions,NULL,dummy_checkbox_,yes
1534815456,d45e0c7c6927eab31795e2d736a57aca,Form,1,0,instructions,NULL,_REACTION_TIME_,6694
1534815456,d45e0c7c6927eab31795e2d736a57aca,Form,4,0,train,NULL,train_m_A_chosen,no
1534815456,d45e0c7c6927eab31795e2d736a57aca,Form,4,0,train,NULL,train_m_B_chosen,no
1534815456,d45e0c7c6927eab31795e2d736a57aca,Form,4,0,train,NULL,train_m_C_chosen,yes
1534815456,d45e0c7c6927eab31795e2d736a57aca,Form,4,0,train,NULL,none_chosen,no
1534815456,d45e0c7c6927eab31795e2d736a57aca,Form,4,0,train,NULL,_REACTION_TIME_,18924
1534815456,d45e0c7c6927eab31795e2d736a57aca,Form,3,0,train,NULL,train_f_A_chosen,no
1534815456,d45e0c7c6927eab31795e2d736a57aca,Form,3,0,train,NULL,train_f_B_chosen,no
1534815456,d45e0c7c6927eab31795e2d736a57aca,Form,3,0,train,NULL,train_f_C_chosen,no
1534815456,d45e0c7c6927eab31795e2d736a57aca,Form,3,0,train,NULL,none_chosen,yes
1534815456,d45e0c7c6927eab31795e2d736a57aca,Form,3,0,train,NULL,_REACTION_TIME_,18554
1534815456,d45e0c7c6927eab31795e2d736a57aca,Form,5,0,train_end,NULL,dummy_checkbox_,yes
1534815456,d45e0c7c6927eab31795e2d736a57aca,Form,5,0,train_end,NULL,_REACTION_TIME_,1692
1534815456,d45e0c7c6927eab31795e2d736a57aca,Form,9,0,test,NULL,answers_reported,placeholderFriend 1 says%2C "Bookstores A%2C B%2C C%2C D and E."%2CFriend 2 says%2C "Bookstores A and B."%2CFriend 3 says%2C "Bookstore E."
1534815456,d45e0c7c6927eab31795e2d736a57aca,Form,9,0,test,NULL,books_A_chosen,no
1534815456,d45e0c7c6927eab31795e2d736a57aca,Form,9,0,test,NULL,books_B_chosen,no
1534815456,d45e0c7c6927eab31795e2d736a57aca,Form,9,0,test,NULL,books_C_chosen,no
1534815456,d45e0c7c6927eab31795e2d736a57aca,Form,9,0,test,NULL,no_one_chosen,yes
1534815456,d45e0c7c6927eab31795e2d736a57aca,Form,9,0,test,NULL,_REACTION_TIME_,45810
1534815456,d45e0c7c6927eab31795e2d736a57aca,Form,22,0,nst,NULL,NST_1a_chosen,yes
1534815456,d45e0c7c6927eab31795e2d736a57aca,Form,22,0,nst,NULL,NST_1b_chosen,no
1534815456,d45e0c7c6927eab31795e2d736a57aca,Form,22,0,nst,NULL,NST_1c_chosen,no
1534815456,d45e0c7c6927eab31795e2d736a57aca,Form,22,0,nst,NULL,NST_1d_chosen,yes
1534815456,d45e0c7c6927eab31795e2d736a57aca,Form,22,0,nst,NULL,_REACTION_TIME_,12844
1534815456,d45e0c7c6927eab31795e2d736a57aca,Form,20,0,ginz,NULL,ginzwho_smallgrain_y_chosen,yes
1534815456,d45e0c7c6927eab31795e2d736a57aca,Form,20,0,ginz,NULL,ginzwho_smallgrain_n_chosen,no
1534815456,d45e0c7c6927eab31795e2d736a57aca,Form,20,0,ginz,NULL,_REACTION_TIME_,11021
1534815456,d45e0c7c6927eab31795e2d736a57aca,Form,12,0,test,NULL,answers_reported,placeholderRoommate 1 says%2C "Stalls D and E."%2CRoommate 2 says%2C "Stall A."%2CRoommate 3 says%2C "Stalls A%2C B%2C C%2C D and E."
1534815456,d45e0c7c6927eab31795e2d736a57aca,Form,12,0,test,NULL,yarn_A_chosen,no
1534815456,d45e0c7c6927eab31795e2d736a57aca,Form,12,0,test,NULL,yarn_B_chosen,yes
1534815456,d45e0c7c6927eab31795e2d736a57aca,Form,12,0,test,NULL,yarn_C_chosen,yes
1534815456,d45e0c7c6927eab31795e2d736a57aca,Form,12,0,test,NULL,no_one_chosen,no
1534815456,d45e0c7c6927eab31795e2d736a57aca,Form,12,0,test,NULL,_REACTION_TIME_,25469
1534815456,d45e0c7c6927eab31795e2d736a57aca,Form,15,0,control,NULL,what_A_chosen,yes
1534815456,d45e0c7c6927eab31795e2d736a57aca,Form,15,0,control,NULL,what_B_chosen,no
1534815456,d45e0c7c6927eab31795e2d736a57aca,Form,15,0,control,NULL,what_C_chosen,no
1534815456,d45e0c7c6927eab31795e2d736a57aca,Form,15,0,control,NULL,none_chosen,no
1534815456,d45e0c7c6927eab31795e2d736a57aca,Form,15,0,control,NULL,_REACTION_TIME_,12217
1534815456,d45e0c7c6927eab31795e2d736a57aca,Form,23,0,nst,NULL,NST_2a_chosen,yes
1534815456,d45e0c7c6927eab31795e2d736a57aca,Form,23,0,nst,NULL,NST_2b_chosen,yes
1534815456,d45e0c7c6927eab31795e2d736a57aca,Form,23,0,nst,NULL,NST_2c_chosen,yes
1534815456,d45e0c7c6927eab31795e2d736a57aca,Form,23,0,nst,NULL,NST_2d_chosen,no
1534815456,d45e0c7c6927eab31795e2d736a57aca,Form,23,0,nst,NULL,NST_2e_chosen,no
1534815456,d45e0c7c6927eab31795e2d736a57aca,Form,23,0,nst,NULL,_REACTION_TIME_,10274
1534815456,d45e0c7c6927eab31795e2d736a57aca,Form,19,0,ginz,NULL,ginzwhere_largegrain_y_chosen,yes
1534815456,d45e0c7c6927eab31795e2d736a57aca,Form,19,0,ginz,NULL,ginzwhere_largegrain_n_chosen,no
1534815456,d45e0c7c6927eab31795e2d736a57aca,Form,19,0,ginz,NULL,_REACTION_TIME_,8912
1534815456,d45e0c7c6927eab31795e2d736a57aca,Form,8,0,test,NULL,answers_reported,placeholderFriend 1 says%2C "Store A."%2CFriend 2 says%2C "Store F."%2CFriend 3 says%2C "Stores A and B."
1534815456,d45e0c7c6927eab31795e2d736a57aca,Form,8,0,test,NULL,shoes_A_chosen,yes
1534815456,d45e0c7c6927eab31795e2d736a57aca,Form,8,0,test,NULL,shoes_B_chosen,no
1534815456,d45e0c7c6927eab31795e2d736a57aca,Form,8,0,test,NULL,shoes_C_chosen,yes
1534815456,d45e0c7c6927eab31795e2d736a57aca,Form,8,0,test,NULL,no_one_chosen,no
1534815456,d45e0c7c6927eab31795e2d736a57aca,Form,8,0,test,NULL,_REACTION_TIME_,11232
1534815456,d45e0c7c6927eab31795e2d736a57aca,Form,13,0,test,NULL,answers_reported,placeholderRoommate 1 says%2C "Cafes A and B."%2CRoommate 2 says%2C "Cafes D and E."%2CRoommate 3 says%2C "Cafe E."
1534815456,d45e0c7c6927eab31795e2d736a57aca,Form,13,0,test,NULL,coffee_A_chosen,yes
1534815456,d45e0c7c6927eab31795e2d736a57aca,Form,13,0,test,NULL,coffee_B_chosen,no
1534815456,d45e0c7c6927eab31795e2d736a57aca,Form,13,0,test,NULL,coffee_C_chosen,no
1534815456,d45e0c7c6927eab31795e2d736a57aca,Form,13,0,test,NULL,no_one_chosen,no
1534815456,d45e0c7c6927eab31795e2d736a57aca,Form,13,0,test,NULL,_REACTION_TIME_,9523
1534815456,d45e0c7c6927eab31795e2d736a57aca,Form,17,0,control,NULL,how_guest_A_chosen,no
1534815456,d45e0c7c6927eab31795e2d736a57aca,Form,17,0,control,NULL,how_guest_B_chosen,yes
1534815456,d45e0c7c6927eab31795e2d736a57aca,Form,17,0,control,NULL,how_guest_C_chosen,yes
1534815456,d45e0c7c6927eab31795e2d736a57aca,Form,17,0,control,NULL,none_chosen,no
1534815456,d45e0c7c6927eab31795e2d736a57aca,Form,17,0,control,NULL,_REACTION_TIME_,21280
1534815456,d45e0c7c6927eab31795e2d736a57aca,Form,24,0,nst,NULL,NST_3a_chosen,yes
1534815456,d45e0c7c6927eab31795e2d736a57aca,Form,24,0,nst,NULL,NST_3b_chosen,no
1534815456,d45e0c7c6927eab31795e2d736a57aca,Form,24,0,nst,NULL,NST_3c_chosen,no
1534815456,d45e0c7c6927eab31795e2d736a57aca,Form,24,0,nst,NULL,NST_3d_chosen,yes
1534815456,d45e0c7c6927eab31795e2d736a57aca,Form,24,0,nst,NULL,NST_3e_chosen,no
1534815456,d45e0c7c6927eab31795e2d736a57aca,Form,24,0,nst,NULL,_REACTION_TIME_,12214
1534815456,d45e0c7c6927eab31795e2d736a57aca,Form,18,0,ginz,NULL,ginzwhere_largegrain_y_chosen,yes
1534815456,d45e0c7c6927eab31795e2d736a57aca,Form,18,0,ginz,NULL,ginzwhere_largegrain_n_chosen,no
1534815456,d45e0c7c6927eab31795e2d736a57aca,Form,18,0,ginz,NULL,_REACTION_TIME_,8139
1534815456,d45e0c7c6927eab31795e2d736a57aca,Form,11,0,test,NULL,answers_reported,placeholderCoworker 1 says%2C "Dentists A%2C B%2C C%2C D and E."%2CCoworker 2 says%2C "Dentist E."%2CCoworker 3 says%2C "Dentists D and E."
1534815456,d45e0c7c6927eab31795e2d736a57aca,Form,11,0,test,NULL,dentist_A_chosen,no
1534815456,d45e0c7c6927eab31795e2d736a57aca,Form,11,0,test,NULL,dentist_B_chosen,no
1534815456,d45e0c7c6927eab31795e2d736a57aca,Form,11,0,test,NULL,dentist_C_chosen,no
1534815456,d45e0c7c6927eab31795e2d736a57aca,Form,11,0,test,NULL,no_one_chosen,yes
1534815456,d45e0c7c6927eab31795e2d736a57aca,Form,11,0,test,NULL,_REACTION_TIME_,11403
1534815456,d45e0c7c6927eab31795e2d736a57aca,Form,16,0,control,NULL,when_A_chosen,no
1534815456,d45e0c7c6927eab31795e2d736a57aca,Form,16,0,control,NULL,when_B_chosen,no
1534815456,d45e0c7c6927eab31795e2d736a57aca,Form,16,0,control,NULL,when_C_chosen,yes
1534815456,d45e0c7c6927eab31795e2d736a57aca,Form,16,0,control,NULL,none_chosen,no
1534815456,d45e0c7c6927eab31795e2d736a57aca,Form,16,0,control,NULL,_REACTION_TIME_,21071
1534815456,d45e0c7c6927eab31795e2d736a57aca,Form,10,0,test,NULL,answers_reported,placeholderFriend 1 says%2C "Stylist A."%2CFriend 2 says%2C "Stylists A and B."%2CFriend 3 says%2C "Stylists D and E."
1534815456,d45e0c7c6927eab31795e2d736a57aca,Form,10,0,test,NULL,hair_A_chosen,yes
1534815456,d45e0c7c6927eab31795e2d736a57aca,Form,10,0,test,NULL,hair_B_chosen,no
1534815456,d45e0c7c6927eab31795e2d736a57aca,Form,10,0,test,NULL,hair_C_chosen,no
1534815456,d45e0c7c6927eab31795e2d736a57aca,Form,10,0,test,NULL,no_one_chosen,no
1534815456,d45e0c7c6927eab31795e2d736a57aca,Form,10,0,test,NULL,_REACTION_TIME_,7119
1534815456,d45e0c7c6927eab31795e2d736a57aca,Form,25,0,nst,NULL,NST_4a_chosen,no
1534815456,d45e0c7c6927eab31795e2d736a57aca,Form,25,0,nst,NULL,NST_4b_chosen,yes
1534815456,d45e0c7c6927eab31795e2d736a57aca,Form,25,0,nst,NULL,_REACTION_TIME_,5991
1534815456,d45e0c7c6927eab31795e2d736a57aca,Form,21,0,ginz,NULL,ginzwhere_smallgrain_y_chosen,yes
1534815456,d45e0c7c6927eab31795e2d736a57aca,Form,21,0,ginz,NULL,ginzwhere_smallgrain_n_chosen,no
1534815456,d45e0c7c6927eab31795e2d736a57aca,Form,21,0,ginz,NULL,_REACTION_TIME_,3738
1534815456,d45e0c7c6927eab31795e2d736a57aca,Form,14,0,control,NULL,why_A_chosen,yes
1534815456,d45e0c7c6927eab31795e2d736a57aca,Form,14,0,control,NULL,why_B_chosen,no
1534815456,d45e0c7c6927eab31795e2d736a57aca,Form,14,0,control,NULL,why_C_chosen,no
1534815456,d45e0c7c6927eab31795e2d736a57aca,Form,14,0,control,NULL,none_chosen,no
1534815456,d45e0c7c6927eab31795e2d736a57aca,Form,14,0,control,NULL,_REACTION_TIME_,13465
1534815456,d45e0c7c6927eab31795e2d736a57aca,Form,6,0,exit_quest,NULL,know_conditons,No%2C because the two questions essentially ask the same thing.
1534815456,d45e0c7c6927eab31795e2d736a57aca,Form,6,0,exit_quest,NULL,difficult,Not really since the sentences were clear. However%2C some of the rankings were ambiguous.
1534815456,d45e0c7c6927eab31795e2d736a57aca,Form,6,0,exit_quest,NULL,anything_else,No.
1534815456,d45e0c7c6927eab31795e2d736a57aca,Form,6,0,exit_quest,NULL,dummy_checkbox_,yes
1534815456,d45e0c7c6927eab31795e2d736a57aca,Form,6,0,exit_quest,NULL,_REACTION_TIME_,40274
#
# Results on Tuesday August 21 2018 01:38:47 UTC.
# USER AGENT: Mozilla/5.0 (Windows NT 10.0; WOW64) AppleWebKit/537.36 (KHTML, like Gecko) Chrome/68.0.3440.106 Safari/537.36
# Design number was non-random = 2
#
# Columns below this comment are as follows:
# 1. Time results were received.
# 2. MD5 hash of participant's IP address.
# 3. Controller name.
# 4. Item number.
# 5. Element number.
# 6. Type.
# 7. Group.
# 8. Field name.
# 9. Field value.
1534815527,3831c96da08b661f01e9b84bbe43f88a,Form,2,0,consent,NULL,subject_id,A3GQR89E66AQJY
1534815527,3831c96da08b661f01e9b84bbe43f88a,Form,2,0,consent,NULL,native_lang,English
1534815527,3831c96da08b661f01e9b84bbe43f88a,Form,2,0,consent,NULL,age,25
1534815527,3831c96da08b661f01e9b84bbe43f88a,Form,2,0,consent,NULL,consent_checkbox_,yes
1534815527,3831c96da08b661f01e9b84bbe43f88a,Form,2,0,consent,NULL,dummy_checkbox_,yes
1534815527,3831c96da08b661f01e9b84bbe43f88a,Form,2,0,consent,NULL,sex,female
1534815527,3831c96da08b661f01e9b84bbe43f88a,Form,2,0,consent,NULL,_REACTION_TIME_,17161
1534815527,3831c96da08b661f01e9b84bbe43f88a,Form,1,0,instructions,NULL,dummy_checkbox_,yes
1534815527,3831c96da08b661f01e9b84bbe43f88a,Form,1,0,instructions,NULL,_REACTION_TIME_,8228
1534815527,3831c96da08b661f01e9b84bbe43f88a,Form,4,0,train,NULL,train_m_A_chosen,no
1534815527,3831c96da08b661f01e9b84bbe43f88a,Form,4,0,train,NULL,train_m_B_chosen,yes
1534815527,3831c96da08b661f01e9b84bbe43f88a,Form,4,0,train,NULL,train_m_C_chosen,yes
1534815527,3831c96da08b661f01e9b84bbe43f88a,Form,4,0,train,NULL,none_chosen,no
1534815527,3831c96da08b661f01e9b84bbe43f88a,Form,4,0,train,NULL,_REACTION_TIME_,33717
1534815527,3831c96da08b661f01e9b84bbe43f88a,Form,3,0,train,NULL,train_f_A_chosen,no
1534815527,3831c96da08b661f01e9b84bbe43f88a,Form,3,0,train,NULL,train_f_B_chosen,no
1534815527,3831c96da08b661f01e9b84bbe43f88a,Form,3,0,train,NULL,train_f_C_chosen,no
1534815527,3831c96da08b661f01e9b84bbe43f88a,Form,3,0,train,NULL,none_chosen,yes
1534815527,3831c96da08b661f01e9b84bbe43f88a,Form,3,0,train,NULL,_REACTION_TIME_,15820
1534815527,3831c96da08b661f01e9b84bbe43f88a,Form,5,0,train_end,NULL,dummy_checkbox_,yes
1534815527,3831c96da08b661f01e9b84bbe43f88a,Form,5,0,train_end,NULL,_REACTION_TIME_,14616
1534815527,3831c96da08b661f01e9b84bbe43f88a,Form,12,0,test,NULL,answers_reported,placeholderRoommate 1 says%2C "Stalls D and E."%2CRoommate 2 says%2C "Stall A."%2CRoommate 3 says%2C "Stalls A and B."
1534815527,3831c96da08b661f01e9b84bbe43f88a,Form,12,0,test,NULL,yarn_A_chosen,no
1534815527,3831c96da08b661f01e9b84bbe43f88a,Form,12,0,test,NULL,yarn_B_chosen,no
1534815527,3831c96da08b661f01e9b84bbe43f88a,Form,12,0,test,NULL,yarn_C_chosen,no
1534815527,3831c96da08b661f01e9b84bbe43f88a,Form,12,0,test,NULL,no_one_chosen,yes
1534815527,3831c96da08b661f01e9b84bbe43f88a,Form,12,0,test,NULL,_REACTION_TIME_,27190
1534815527,3831c96da08b661f01e9b84bbe43f88a,Form,25,0,nst,NULL,NST_4a_chosen,no
1534815527,3831c96da08b661f01e9b84bbe43f88a,Form,25,0,nst,NULL,NST_4b_chosen,yes
1534815527,3831c96da08b661f01e9b84bbe43f88a,Form,25,0,nst,NULL,_REACTION_TIME_,20950
1534815527,3831c96da08b661f01e9b84bbe43f88a,Form,9,0,test,NULL,answers_reported,placeholderFriend 1 says%2C "Bookstore A."%2CFriend 2 says%2C "Bookstore E."%2CFriend 3 says%2C "Bookstores D and E."
1534815527,3831c96da08b661f01e9b84bbe43f88a,Form,9,0,test,NULL,books_A_chosen,no
1534815527,3831c96da08b661f01e9b84bbe43f88a,Form,9,0,test,NULL,books_B_chosen,no
1534815527,3831c96da08b661f01e9b84bbe43f88a,Form,9,0,test,NULL,books_C_chosen,no
1534815527,3831c96da08b661f01e9b84bbe43f88a,Form,9,0,test,NULL,no_one_chosen,yes
1534815527,3831c96da08b661f01e9b84bbe43f88a,Form,9,0,test,NULL,_REACTION_TIME_,11376
1534815527,3831c96da08b661f01e9b84bbe43f88a,Form,14,0,control,NULL,why_A_chosen,yes
1534815527,3831c96da08b661f01e9b84bbe43f88a,Form,14,0,control,NULL,why_B_chosen,no
1534815527,3831c96da08b661f01e9b84bbe43f88a,Form,14,0,control,NULL,why_C_chosen,no
1534815527,3831c96da08b661f01e9b84bbe43f88a,Form,14,0,control,NULL,none_chosen,no
1534815527,3831c96da08b661f01e9b84bbe43f88a,Form,14,0,control,NULL,_REACTION_TIME_,12138
1534815527,3831c96da08b661f01e9b84bbe43f88a,Form,21,0,ginz,NULL,ginzwhere_smallgrain_y_chosen,yes
1534815527,3831c96da08b661f01e9b84bbe43f88a,Form,21,0,ginz,NULL,ginzwhere_smallgrain_n_chosen,no
1534815527,3831c96da08b661f01e9b84bbe43f88a,Form,21,0,ginz,NULL,_REACTION_TIME_,8762
1534815527,3831c96da08b661f01e9b84bbe43f88a,Form,22,0,nst,NULL,NST_1a_chosen,yes
1534815527,3831c96da08b661f01e9b84bbe43f88a,Form,22,0,nst,NULL,NST_1b_chosen,yes
1534815527,3831c96da08b661f01e9b84bbe43f88a,Form,22,0,nst,NULL,NST_1c_chosen,yes
1534815527,3831c96da08b661f01e9b84bbe43f88a,Form,22,0,nst,NULL,NST_1d_chosen,yes
1534815527,3831c96da08b661f01e9b84bbe43f88a,Form,22,0,nst,NULL,_REACTION_TIME_,9871
1534815527,3831c96da08b661f01e9b84bbe43f88a,Form,10,0,test,NULL,answers_reported,placeholderFriend 1 says%2C "Stylists A and B."%2CFriend 2 says%2C "Stylist A."%2CFriend 3 says%2C "Stylists D and E."
1534815527,3831c96da08b661f01e9b84bbe43f88a,Form,10,0,test,NULL,hair_A_chosen,no
1534815527,3831c96da08b661f01e9b84bbe43f88a,Form,10,0,test,NULL,hair_B_chosen,yes
1534815527,3831c96da08b661f01e9b84bbe43f88a,Form,10,0,test,NULL,hair_C_chosen,no
1534815527,3831c96da08b661f01e9b84bbe43f88a,Form,10,0,test,NULL,no_one_chosen,no
1534815527,3831c96da08b661f01e9b84bbe43f88a,Form,10,0,test,NULL,_REACTION_TIME_,18504
1534815527,3831c96da08b661f01e9b84bbe43f88a,Form,18,0,ginz,NULL,ginzwhere_largegrain_y_chosen,yes
1534815527,3831c96da08b661f01e9b84bbe43f88a,Form,18,0,ginz,NULL,ginzwhere_largegrain_n_chosen,no
1534815527,3831c96da08b661f01e9b84bbe43f88a,Form,18,0,ginz,NULL,_REACTION_TIME_,8241
1534815527,3831c96da08b661f01e9b84bbe43f88a,Form,17,0,control,NULL,how_guest_A_chosen,no
1534815527,3831c96da08b661f01e9b84bbe43f88a,Form,17,0,control,NULL,how_guest_B_chosen,no
1534815527,3831c96da08b661f01e9b84bbe43f88a,Form,17,0,control,NULL,how_guest_C_chosen,yes
1534815527,3831c96da08b661f01e9b84bbe43f88a,Form,17,0,control,NULL,none_chosen,no
1534815527,3831c96da08b661f01e9b84bbe43f88a,Form,17,0,control,NULL,_REACTION_TIME_,9420
1534815527,3831c96da08b661f01e9b84bbe43f88a,Form,11,0,test,NULL,answers_reported,placeholderCoworker 1 says%2C "Dentist E."%2CCoworker 2 says%2C "Dentists A and B."%2CCoworker 3 says%2C "Dentist A."
1534815527,3831c96da08b661f01e9b84bbe43f88a,Form,11,0,test,NULL,dentist_A_chosen,no
1534815527,3831c96da08b661f01e9b84bbe43f88a,Form,11,0,test,NULL,dentist_B_chosen,no
1534815527,3831c96da08b661f01e9b84bbe43f88a,Form,11,0,test,NULL,dentist_C_chosen,no
1534815527,3831c96da08b661f01e9b84bbe43f88a,Form,11,0,test,NULL,no_one_chosen,yes
1534815527,3831c96da08b661f01e9b84bbe43f88a,Form,11,0,test,NULL,_REACTION_TIME_,11161
1534815527,3831c96da08b661f01e9b84bbe43f88a,Form,23,0,nst,NULL,NST_2a_chosen,yes
1534815527,3831c96da08b661f01e9b84bbe43f88a,Form,23,0,nst,NULL,NST_2b_chosen,yes
1534815527,3831c96da08b661f01e9b84bbe43f88a,Form,23,0,nst,NULL,NST_2c_chosen,yes
1534815527,3831c96da08b661f01e9b84bbe43f88a,Form,23,0,nst,NULL,NST_2d_chosen,yes
1534815527,3831c96da08b661f01e9b84bbe43f88a,Form,23,0,nst,NULL,NST_2e_chosen,no
1534815527,3831c96da08b661f01e9b84bbe43f88a,Form,23,0,nst,NULL,_REACTION_TIME_,12065
1534815527,3831c96da08b661f01e9b84bbe43f88a,Form,13,0,test,NULL,answers_reported,placeholderRoommate 1 says%2C "Cafe E."%2CRoommate 2 says%2C "Cafe A."%2CRoommate 3 says%2C "Cafes A%2C B%2C C%2C D and E."
1534815527,3831c96da08b661f01e9b84bbe43f88a,Form,13,0,test,NULL,coffee_A_chosen,no
1534815527,3831c96da08b661f01e9b84bbe43f88a,Form,13,0,test,NULL,coffee_B_chosen,no
1534815527,3831c96da08b661f01e9b84bbe43f88a,Form,13,0,test,NULL,coffee_C_chosen,no
1534815527,3831c96da08b661f01e9b84bbe43f88a,Form,13,0,test,NULL,no_one_chosen,yes
1534815527,3831c96da08b661f01e9b84bbe43f88a,Form,13,0,test,NULL,_REACTION_TIME_,9361
1534815527,3831c96da08b661f01e9b84bbe43f88a,Form,15,0,control,NULL,what_A_chosen,no
1534815527,3831c96da08b661f01e9b84bbe43f88a,Form,15,0,control,NULL,what_B_chosen,yes
1534815527,3831c96da08b661f01e9b84bbe43f88a,Form,15,0,control,NULL,what_C_chosen,no
1534815527,3831c96da08b661f01e9b84bbe43f88a,Form,15,0,control,NULL,none_chosen,no
1534815527,3831c96da08b661f01e9b84bbe43f88a,Form,15,0,control,NULL,_REACTION_TIME_,6952
1534815527,3831c96da08b661f01e9b84bbe43f88a,Form,19,0,ginz,NULL,ginzwhere_largegrain_y_chosen,yes
1534815527,3831c96da08b661f01e9b84bbe43f88a,Form,19,0,ginz,NULL,ginzwhere_largegrain_n_chosen,no
1534815527,3831c96da08b661f01e9b84bbe43f88a,Form,19,0,ginz,NULL,_REACTION_TIME_,7249
1534815527,3831c96da08b661f01e9b84bbe43f88a,Form,8,0,test,NULL,answers_reported,placeholderFriend 1 says%2C "Store E."%2CFriend 2 says%2C "Stores D and E."%2CFriend 3 says%2C "Stores A and B."
1534815527,3831c96da08b661f01e9b84bbe43f88a,Form,8,0,test,NULL,shoes_A_chosen,no
1534815527,3831c96da08b661f01e9b84bbe43f88a,Form,8,0,test,NULL,shoes_B_chosen,yes
1534815527,3831c96da08b661f01e9b84bbe43f88a,Form,8,0,test,NULL,shoes_C_chosen,no
1534815527,3831c96da08b661f01e9b84bbe43f88a,Form,8,0,test,NULL,no_one_chosen,no
1534815527,3831c96da08b661f01e9b84bbe43f88a,Form,8,0,test,NULL,_REACTION_TIME_,9280
1534815527,3831c96da08b661f01e9b84bbe43f88a,Form,24,0,nst,NULL,NST_3a_chosen,yes
1534815527,3831c96da08b661f01e9b84bbe43f88a,Form,24,0,nst,NULL,NST_3b_chosen,yes
1534815527,3831c96da08b661f01e9b84bbe43f88a,Form,24,0,nst,NULL,NST_3c_chosen,no
1534815527,3831c96da08b661f01e9b84bbe43f88a,Form,24,0,nst,NULL,NST_3d_chosen,yes
1534815527,3831c96da08b661f01e9b84bbe43f88a,Form,24,0,nst,NULL,NST_3e_chosen,no
1534815527,3831c96da08b661f01e9b84bbe43f88a,Form,24,0,nst,NULL,_REACTION_TIME_,10115
1534815527,3831c96da08b661f01e9b84bbe43f88a,Form,20,0,ginz,NULL,ginzwho_smallgrain_y_chosen,yes
1534815527,3831c96da08b661f01e9b84bbe43f88a,Form,20,0,ginz,NULL,ginzwho_smallgrain_n_chosen,no
1534815527,3831c96da08b661f01e9b84bbe43f88a,Form,20,0,ginz,NULL,_REACTION_TIME_,6700
1534815527,3831c96da08b661f01e9b84bbe43f88a,Form,16,0,control,NULL,when_A_chosen,no
1534815527,3831c96da08b661f01e9b84bbe43f88a,Form,16,0,control,NULL,when_B_chosen,yes
1534815527,3831c96da08b661f01e9b84bbe43f88a,Form,16,0,control,NULL,when_C_chosen,yes
1534815527,3831c96da08b661f01e9b84bbe43f88a,Form,16,0,control,NULL,none_chosen,no
1534815527,3831c96da08b661f01e9b84bbe43f88a,Form,16,0,control,NULL,_REACTION_TIME_,18440
1534815527,3831c96da08b661f01e9b84bbe43f88a,Form,6,0,exit_quest,NULL,know_conditons,No%2C I would answer the same. Even though it's worded differently%2C it's asking the same thing.
1534815527,3831c96da08b661f01e9b84bbe43f88a,Form,6,0,exit_quest,NULL,difficult,Yes - I often didn't see any difference in the answers and many were just too vague.
1534815527,3831c96da08b661f01e9b84bbe43f88a,Form,6,0,exit_quest,NULL,anything_else,No - thank you!
1534815527,3831c96da08b661f01e9b84bbe43f88a,Form,6,0,exit_quest,NULL,dummy_checkbox_,yes
1534815527,3831c96da08b661f01e9b84bbe43f88a,Form,6,0,exit_quest,NULL,_REACTION_TIME_,96190
#
# Results on Tuesday August 21 2018 01:39:00 UTC.
# USER AGENT: Mozilla/5.0 (Macintosh; Intel Mac OS X 10_13_4) AppleWebKit/537.36 (KHTML, like Gecko) Chrome/68.0.3440.106 Safari/537.36
# Design number was non-random = 2
#
# Columns below this comment are as follows:
# 1. Time results were received.
# 2. MD5 hash of participant's IP address.
# 3. Controller name.
# 4. Item number.
# 5. Element number.
# 6. Type.
# 7. Group.
# 8. Field name.
# 9. Field value.
1534815540,59a4827c57bc2e09be7d173b41d215c4,Form,2,0,consent,NULL,subject_id,A25ZLJK1VMAXXQ
1534815540,59a4827c57bc2e09be7d173b41d215c4,Form,2,0,consent,NULL,native_lang,English
1534815540,59a4827c57bc2e09be7d173b41d215c4,Form,2,0,consent,NULL,age,25
1534815540,59a4827c57bc2e09be7d173b41d215c4,Form,2,0,consent,NULL,consent_checkbox_,yes
1534815540,59a4827c57bc2e09be7d173b41d215c4,Form,2,0,consent,NULL,dummy_checkbox_,yes
1534815540,59a4827c57bc2e09be7d173b41d215c4,Form,2,0,consent,NULL,sex,male
1534815540,59a4827c57bc2e09be7d173b41d215c4,Form,2,0,consent,NULL,_REACTION_TIME_,32833
1534815540,59a4827c57bc2e09be7d173b41d215c4,Form,1,0,instructions,NULL,dummy_checkbox_,yes
1534815540,59a4827c57bc2e09be7d173b41d215c4,Form,1,0,instructions,NULL,_REACTION_TIME_,3791
1534815540,59a4827c57bc2e09be7d173b41d215c4,Form,3,0,train,NULL,train_f_A_chosen,no
1534815540,59a4827c57bc2e09be7d173b41d215c4,Form,3,0,train,NULL,train_f_B_chosen,no
1534815540,59a4827c57bc2e09be7d173b41d215c4,Form,3,0,train,NULL,train_f_C_chosen,no
1534815540,59a4827c57bc2e09be7d173b41d215c4,Form,3,0,train,NULL,none_chosen,yes
1534815540,59a4827c57bc2e09be7d173b41d215c4,Form,3,0,train,NULL,_REACTION_TIME_,16114
1534815540,59a4827c57bc2e09be7d173b41d215c4,Form,4,0,train,NULL,train_m_A_chosen,no
1534815540,59a4827c57bc2e09be7d173b41d215c4,Form,4,0,train,NULL,train_m_B_chosen,yes
1534815540,59a4827c57bc2e09be7d173b41d215c4,Form,4,0,train,NULL,train_m_C_chosen,yes
1534815540,59a4827c57bc2e09be7d173b41d215c4,Form,4,0,train,NULL,none_chosen,no
1534815540,59a4827c57bc2e09be7d173b41d215c4,Form,4,0,train,NULL,_REACTION_TIME_,29721
1534815540,59a4827c57bc2e09be7d173b41d215c4,Form,5,0,train_end,NULL,dummy_checkbox_,yes
1534815540,59a4827c57bc2e09be7d173b41d215c4,Form,5,0,train_end,NULL,_REACTION_TIME_,1584
1534815540,59a4827c57bc2e09be7d173b41d215c4,Form,12,0,test,NULL,answers_reported,placeholderRoommate 1 says%2C "Stalls A%2C B%2C C%2C D and E."%2CRoommate 2 says%2C "Stalls D and E."%2CRoommate 3 says%2C "Stalls A and B."
1534815540,59a4827c57bc2e09be7d173b41d215c4,Form,12,0,test,NULL,yarn_A_chosen,yes
1534815540,59a4827c57bc2e09be7d173b41d215c4,Form,12,0,test,NULL,yarn_B_chosen,yes
1534815540,59a4827c57bc2e09be7d173b41d215c4,Form,12,0,test,NULL,yarn_C_chosen,yes
1534815540,59a4827c57bc2e09be7d173b41d215c4,Form,12,0,test,NULL,no_one_chosen,no
1534815540,59a4827c57bc2e09be7d173b41d215c4,Form,12,0,test,NULL,_REACTION_TIME_,27427
1534815540,59a4827c57bc2e09be7d173b41d215c4,Form,20,0,ginz,NULL,ginzwho_smallgrain_y_chosen,yes
1534815540,59a4827c57bc2e09be7d173b41d215c4,Form,20,0,ginz,NULL,ginzwho_smallgrain_n_chosen,no
1534815540,59a4827c57bc2e09be7d173b41d215c4,Form,20,0,ginz,NULL,_REACTION_TIME_,9039
1534815540,59a4827c57bc2e09be7d173b41d215c4,Form,11,0,test,NULL,answers_reported,placeholderCoworker 1 says%2C "Dentist E."%2CCoworker 2 says%2C "Dentist F."%2CCoworker 3 says%2C "Dentist A."
1534815540,59a4827c57bc2e09be7d173b41d215c4,Form,11,0,test,NULL,dentist_A_chosen,no
1534815540,59a4827c57bc2e09be7d173b41d215c4,Form,11,0,test,NULL,dentist_B_chosen,no
1534815540,59a4827c57bc2e09be7d173b41d215c4,Form,11,0,test,NULL,dentist_C_chosen,no
1534815540,59a4827c57bc2e09be7d173b41d215c4,Form,11,0,test,NULL,no_one_chosen,yes
1534815540,59a4827c57bc2e09be7d173b41d215c4,Form,11,0,test,NULL,_REACTION_TIME_,13791
1534815540,59a4827c57bc2e09be7d173b41d215c4,Form,16,0,control,NULL,when_A_chosen,yes
1534815540,59a4827c57bc2e09be7d173b41d215c4,Form,16,0,control,NULL,when_B_chosen,yes
1534815540,59a4827c57bc2e09be7d173b41d215c4,Form,16,0,control,NULL,when_C_chosen,yes
1534815540,59a4827c57bc2e09be7d173b41d215c4,Form,16,0,control,NULL,none_chosen,no
1534815540,59a4827c57bc2e09be7d173b41d215c4,Form,16,0,control,NULL,_REACTION_TIME_,12857
1534815540,59a4827c57bc2e09be7d173b41d215c4,Form,24,0,nst,NULL,NST_3a_chosen,yes
1534815540,59a4827c57bc2e09be7d173b41d215c4,Form,24,0,nst,NULL,NST_3b_chosen,no
1534815540,59a4827c57bc2e09be7d173b41d215c4,Form,24,0,nst,NULL,NST_3c_chosen,yes
1534815540,59a4827c57bc2e09be7d173b41d215c4,Form,24,0,nst,NULL,NST_3d_chosen,yes
1534815540,59a4827c57bc2e09be7d173b41d215c4,Form,24,0,nst,NULL,NST_3e_chosen,no
1534815540,59a4827c57bc2e09be7d173b41d215c4,Form,24,0,nst,NULL,_REACTION_TIME_,12843
1534815540,59a4827c57bc2e09be7d173b41d215c4,Form,21,0,ginz,NULL,ginzwhere_smallgrain_y_chosen,no
1534815540,59a4827c57bc2e09be7d173b41d215c4,Form,21,0,ginz,NULL,ginzwhere_smallgrain_n_chosen,yes
1534815540,59a4827c57bc2e09be7d173b41d215c4,Form,21,0,ginz,NULL,_REACTION_TIME_,14865
1534815540,59a4827c57bc2e09be7d173b41d215c4,Form,8,0,test,NULL,answers_reported,placeholderFriend 1 says%2C "Stores D and E."%2CFriend 2 says%2C "Store E."%2CFriend 3 says%2C "Store A."
1534815540,59a4827c57bc2e09be7d173b41d215c4,Form,8,0,test,NULL,shoes_A_chosen,no
1534815540,59a4827c57bc2e09be7d173b41d215c4,Form,8,0,test,NULL,shoes_B_chosen,no
1534815540,59a4827c57bc2e09be7d173b41d215c4,Form,8,0,test,NULL,shoes_C_chosen,no
1534815540,59a4827c57bc2e09be7d173b41d215c4,Form,8,0,test,NULL,no_one_chosen,yes
1534815540,59a4827c57bc2e09be7d173b41d215c4,Form,8,0,test,NULL,_REACTION_TIME_,8321
1534815540,59a4827c57bc2e09be7d173b41d215c4,Form,22,0,nst,NULL,NST_1a_chosen,yes
1534815540,59a4827c57bc2e09be7d173b41d215c4,Form,22,0,nst,NULL,NST_1b_chosen,no
1534815540,59a4827c57bc2e09be7d173b41d215c4,Form,22,0,nst,NULL,NST_1c_chosen,no
1534815540,59a4827c57bc2e09be7d173b41d215c4,Form,22,0,nst,NULL,NST_1d_chosen,yes
1534815540,59a4827c57bc2e09be7d173b41d215c4,Form,22,0,nst,NULL,_REACTION_TIME_,6845
1534815540,59a4827c57bc2e09be7d173b41d215c4,Form,17,0,control,NULL,how_guest_A_chosen,yes
1534815540,59a4827c57bc2e09be7d173b41d215c4,Form,17,0,control,NULL,how_guest_B_chosen,yes
1534815540,59a4827c57bc2e09be7d173b41d215c4,Form,17,0,control,NULL,how_guest_C_chosen,yes
1534815540,59a4827c57bc2e09be7d173b41d215c4,Form,17,0,control,NULL,none_chosen,no
1534815540,59a4827c57bc2e09be7d173b41d215c4,Form,17,0,control,NULL,_REACTION_TIME_,28626
1534815540,59a4827c57bc2e09be7d173b41d215c4,Form,10,0,test,NULL,answers_reported,placeholderFriend 1 says%2C "Stylists D and E."%2CFriend 2 says%2C "Stylist A."%2CFriend 3 says%2C "Stylist E."
1534815540,59a4827c57bc2e09be7d173b41d215c4,Form,10,0,test,NULL,hair_A_chosen,no
1534815540,59a4827c57bc2e09be7d173b41d215c4,Form,10,0,test,NULL,hair_B_chosen,no
1534815540,59a4827c57bc2e09be7d173b41d215c4,Form,10,0,test,NULL,hair_C_chosen,no
1534815540,59a4827c57bc2e09be7d173b41d215c4,Form,10,0,test,NULL,no_one_chosen,yes
1534815540,59a4827c57bc2e09be7d173b41d215c4,Form,10,0,test,NULL,_REACTION_TIME_,28744
1534815540,59a4827c57bc2e09be7d173b41d215c4,Form,18,0,ginz,NULL,ginzwhere_largegrain_y_chosen,yes
1534815540,59a4827c57bc2e09be7d173b41d215c4,Form,18,0,ginz,NULL,ginzwhere_largegrain_n_chosen,no
1534815540,59a4827c57bc2e09be7d173b41d215c4,Form,18,0,ginz,NULL,_REACTION_TIME_,69508
1534815540,59a4827c57bc2e09be7d173b41d215c4,Form,9,0,test,NULL,answers_reported,placeholderFriend 1 says%2C "Bookstore A."%2CFriend 2 says%2C "Bookstores A and B."%2CFriend 3 says%2C "Bookstores A%2C B%2C C%2C D and E."
1534815540,59a4827c57bc2e09be7d173b41d215c4,Form,9,0,test,NULL,books_A_chosen,yes
1534815540,59a4827c57bc2e09be7d173b41d215c4,Form,9,0,test,NULL,books_B_chosen,no
1534815540,59a4827c57bc2e09be7d173b41d215c4,Form,9,0,test,NULL,books_C_chosen,no
1534815540,59a4827c57bc2e09be7d173b41d215c4,Form,9,0,test,NULL,no_one_chosen,no
1534815540,59a4827c57bc2e09be7d173b41d215c4,Form,9,0,test,NULL,_REACTION_TIME_,8435
1534815540,59a4827c57bc2e09be7d173b41d215c4,Form,15,0,control,NULL,what_A_chosen,yes
1534815540,59a4827c57bc2e09be7d173b41d215c4,Form,15,0,control,NULL,what_B_chosen,no
1534815540,59a4827c57bc2e09be7d173b41d215c4,Form,15,0,control,NULL,what_C_chosen,no
1534815540,59a4827c57bc2e09be7d173b41d215c4,Form,15,0,control,NULL,none_chosen,no
1534815540,59a4827c57bc2e09be7d173b41d215c4,Form,15,0,control,NULL,_REACTION_TIME_,17082
1534815540,59a4827c57bc2e09be7d173b41d215c4,Form,25,0,nst,NULL,NST_4a_chosen,no
1534815540,59a4827c57bc2e09be7d173b41d215c4,Form,25,0,nst,NULL,NST_4b_chosen,yes
1534815540,59a4827c57bc2e09be7d173b41d215c4,Form,25,0,nst,NULL,_REACTION_TIME_,6682
1534815540,59a4827c57bc2e09be7d173b41d215c4,Form,13,0,test,NULL,answers_reported,placeholderRoommate 1 says%2C "Cafes D and E."%2CRoommate 2 says%2C "Cafes A and B."%2CRoommate 3 says%2C "Cafes A%2C B%2C C%2C D and E."
1534815540,59a4827c57bc2e09be7d173b41d215c4,Form,13,0,test,NULL,coffee_A_chosen,no
1534815540,59a4827c57bc2e09be7d173b41d215c4,Form,13,0,test,NULL,coffee_B_chosen,no
1534815540,59a4827c57bc2e09be7d173b41d215c4,Form,13,0,test,NULL,coffee_C_chosen,no
1534815540,59a4827c57bc2e09be7d173b41d215c4,Form,13,0,test,NULL,no_one_chosen,yes
1534815540,59a4827c57bc2e09be7d173b41d215c4,Form,13,0,test,NULL,_REACTION_TIME_,12669
1534815540,59a4827c57bc2e09be7d173b41d215c4,Form,19,0,ginz,NULL,ginzwhere_largegrain_y_chosen,yes
1534815540,59a4827c57bc2e09be7d173b41d215c4,Form,19,0,ginz,NULL,ginzwhere_largegrain_n_chosen,no
1534815540,59a4827c57bc2e09be7d173b41d215c4,Form,19,0,ginz,NULL,_REACTION_TIME_,8475
1534815540,59a4827c57bc2e09be7d173b41d215c4,Form,23,0,nst,NULL,NST_2a_chosen,yes
1534815540,59a4827c57bc2e09be7d173b41d215c4,Form,23,0,nst,NULL,NST_2b_chosen,no
1534815540,59a4827c57bc2e09be7d173b41d215c4,Form,23,0,nst,NULL,NST_2c_chosen,no
1534815540,59a4827c57bc2e09be7d173b41d215c4,Form,23,0,nst,NULL,NST_2d_chosen,no
1534815540,59a4827c57bc2e09be7d173b41d215c4,Form,23,0,nst,NULL,NST_2e_chosen,no
1534815540,59a4827c57bc2e09be7d173b41d215c4,Form,23,0,nst,NULL,_REACTION_TIME_,8071
1534815540,59a4827c57bc2e09be7d173b41d215c4,Form,14,0,control,NULL,why_A_chosen,yes
1534815540,59a4827c57bc2e09be7d173b41d215c4,Form,14,0,control,NULL,why_B_chosen,yes
1534815540,59a4827c57bc2e09be7d173b41d215c4,Form,14,0,control,NULL,why_C_chosen,no
1534815540,59a4827c57bc2e09be7d173b41d215c4,Form,14,0,control,NULL,none_chosen,no
1534815540,59a4827c57bc2e09be7d173b41d215c4,Form,14,0,control,NULL,_REACTION_TIME_,14686
1534815540,59a4827c57bc2e09be7d173b41d215c4,Form,6,0,exit_quest,NULL,know_conditons,No%2C because I would pick my favorite restaurants to recommend to the person.
1534815540,59a4827c57bc2e09be7d173b41d215c4,Form,6,0,exit_quest,NULL,difficult,No%2C because it's a lot of common sense.
1534815540,59a4827c57bc2e09be7d173b41d215c4,Form,6,0,exit_quest,NULL,anything_else,This was a fun and unique study. 
1534815540,59a4827c57bc2e09be7d173b41d215c4,Form,6,0,exit_quest,NULL,dummy_checkbox_,yes
1534815540,59a4827c57bc2e09be7d173b41d215c4,Form,6,0,exit_quest,NULL,_REACTION_TIME_,35912
#
# Results on Tuesday August 21 2018 01:39:35 UTC.
# USER AGENT: Mozilla/5.0 (Windows NT 10.0; Win64; x64) AppleWebKit/537.36 (KHTML, like Gecko) Chrome/68.0.3440.106 Safari/537.36
# Design number was non-random = 2
#
# Columns below this comment are as follows:
# 1. Time results were received.
# 2. MD5 hash of participant's IP address.
# 3. Controller name.
# 4. Item number.
# 5. Element number.
# 6. Type.
# 7. Group.
# 8. Field name.
# 9. Field value.
1534815576,6f803e916d4a194a20dd0965c164ee36,Form,2,0,consent,NULL,subject_id,A2791MEBSOAD1U
1534815576,6f803e916d4a194a20dd0965c164ee36,Form,2,0,consent,NULL,native_lang,english
1534815576,6f803e916d4a194a20dd0965c164ee36,Form,2,0,consent,NULL,age,35
1534815576,6f803e916d4a194a20dd0965c164ee36,Form,2,0,consent,NULL,consent_checkbox_,yes
1534815576,6f803e916d4a194a20dd0965c164ee36,Form,2,0,consent,NULL,dummy_checkbox_,yes
1534815576,6f803e916d4a194a20dd0965c164ee36,Form,2,0,consent,NULL,sex,female
1534815576,6f803e916d4a194a20dd0965c164ee36,Form,2,0,consent,NULL,_REACTION_TIME_,27808
1534815576,6f803e916d4a194a20dd0965c164ee36,Form,1,0,instructions,NULL,dummy_checkbox_,yes
1534815576,6f803e916d4a194a20dd0965c164ee36,Form,1,0,instructions,NULL,_REACTION_TIME_,3535
1534815576,6f803e916d4a194a20dd0965c164ee36,Form,3,0,train,NULL,train_f_A_chosen,no
1534815576,6f803e916d4a194a20dd0965c164ee36,Form,3,0,train,NULL,train_f_B_chosen,no
1534815576,6f803e916d4a194a20dd0965c164ee36,Form,3,0,train,NULL,train_f_C_chosen,no
1534815576,6f803e916d4a194a20dd0965c164ee36,Form,3,0,train,NULL,none_chosen,yes
1534815576,6f803e916d4a194a20dd0965c164ee36,Form,3,0,train,NULL,_REACTION_TIME_,32499
1534815576,6f803e916d4a194a20dd0965c164ee36,Form,4,0,train,NULL,train_m_A_chosen,no
1534815576,6f803e916d4a194a20dd0965c164ee36,Form,4,0,train,NULL,train_m_B_chosen,no
1534815576,6f803e916d4a194a20dd0965c164ee36,Form,4,0,train,NULL,train_m_C_chosen,no
1534815576,6f803e916d4a194a20dd0965c164ee36,Form,4,0,train,NULL,none_chosen,yes
1534815576,6f803e916d4a194a20dd0965c164ee36,Form,4,0,train,NULL,_REACTION_TIME_,39703
1534815576,6f803e916d4a194a20dd0965c164ee36,Form,5,0,train_end,NULL,dummy_checkbox_,yes
1534815576,6f803e916d4a194a20dd0965c164ee36,Form,5,0,train_end,NULL,_REACTION_TIME_,2096
1534815576,6f803e916d4a194a20dd0965c164ee36,Form,12,0,test,NULL,answers_reported,placeholderRoommate 1 says%2C "Stalls A and B."%2CRoommate 2 says%2C "Stalls D and E."%2CRoommate 3 says%2C "Stalls A%2C B%2C C%2C D and E."
1534815576,6f803e916d4a194a20dd0965c164ee36,Form,12,0,test,NULL,yarn_A_chosen,no
1534815576,6f803e916d4a194a20dd0965c164ee36,Form,12,0,test,NULL,yarn_B_chosen,no
1534815576,6f803e916d4a194a20dd0965c164ee36,Form,12,0,test,NULL,yarn_C_chosen,yes
1534815576,6f803e916d4a194a20dd0965c164ee36,Form,12,0,test,NULL,no_one_chosen,no
1534815576,6f803e916d4a194a20dd0965c164ee36,Form,12,0,test,NULL,_REACTION_TIME_,38375
1534815576,6f803e916d4a194a20dd0965c164ee36,Form,22,0,nst,NULL,NST_1a_chosen,yes
1534815576,6f803e916d4a194a20dd0965c164ee36,Form,22,0,nst,NULL,NST_1b_chosen,no
1534815576,6f803e916d4a194a20dd0965c164ee36,Form,22,0,nst,NULL,NST_1c_chosen,no
1534815576,6f803e916d4a194a20dd0965c164ee36,Form,22,0,nst,NULL,NST_1d_chosen,yes
1534815576,6f803e916d4a194a20dd0965c164ee36,Form,22,0,nst,NULL,_REACTION_TIME_,11890
1534815576,6f803e916d4a194a20dd0965c164ee36,Form,9,0,test,NULL,answers_reported,placeholderFriend 1 says%2C "Bookstores D and E."%2CFriend 2 says%2C "Bookstores A and B."%2CFriend 3 says%2C "Bookstore A."
1534815576,6f803e916d4a194a20dd0965c164ee36,Form,9,0,test,NULL,books_A_chosen,no
1534815576,6f803e916d4a194a20dd0965c164ee36,Form,9,0,test,NULL,books_B_chosen,yes
1534815576,6f803e916d4a194a20dd0965c164ee36,Form,9,0,test,NULL,books_C_chosen,no
1534815576,6f803e916d4a194a20dd0965c164ee36,Form,9,0,test,NULL,no_one_chosen,no
1534815576,6f803e916d4a194a20dd0965c164ee36,Form,9,0,test,NULL,_REACTION_TIME_,23002
1534815576,6f803e916d4a194a20dd0965c164ee36,Form,21,0,ginz,NULL,ginzwhere_smallgrain_y_chosen,yes
1534815576,6f803e916d4a194a20dd0965c164ee36,Form,21,0,ginz,NULL,ginzwhere_smallgrain_n_chosen,no
1534815576,6f803e916d4a194a20dd0965c164ee36,Form,21,0,ginz,NULL,_REACTION_TIME_,10050
1534815576,6f803e916d4a194a20dd0965c164ee36,Form,17,0,control,NULL,how_guest_A_chosen,no
1534815576,6f803e916d4a194a20dd0965c164ee36,Form,17,0,control,NULL,how_guest_B_chosen,no
1534815576,6f803e916d4a194a20dd0965c164ee36,Form,17,0,control,NULL,how_guest_C_chosen,yes
1534815576,6f803e916d4a194a20dd0965c164ee36,Form,17,0,control,NULL,none_chosen,no
1534815576,6f803e916d4a194a20dd0965c164ee36,Form,17,0,control,NULL,_REACTION_TIME_,25538
1534815576,6f803e916d4a194a20dd0965c164ee36,Form,24,0,nst,NULL,NST_3a_chosen,yes
1534815576,6f803e916d4a194a20dd0965c164ee36,Form,24,0,nst,NULL,NST_3b_chosen,no
1534815576,6f803e916d4a194a20dd0965c164ee36,Form,24,0,nst,NULL,NST_3c_chosen,no
1534815576,6f803e916d4a194a20dd0965c164ee36,Form,24,0,nst,NULL,NST_3d_chosen,yes
1534815576,6f803e916d4a194a20dd0965c164ee36,Form,24,0,nst,NULL,NST_3e_chosen,no
1534815576,6f803e916d4a194a20dd0965c164ee36,Form,24,0,nst,NULL,_REACTION_TIME_,16429
1534815576,6f803e916d4a194a20dd0965c164ee36,Form,11,0,test,NULL,answers_reported,placeholderCoworker 1 says%2C "Dentists D and E."%2CCoworker 2 says%2C "Dentist F."%2CCoworker 3 says%2C "Dentist A."
1534815576,6f803e916d4a194a20dd0965c164ee36,Form,11,0,test,NULL,dentist_A_chosen,no
1534815576,6f803e916d4a194a20dd0965c164ee36,Form,11,0,test,NULL,dentist_B_chosen,no
1534815576,6f803e916d4a194a20dd0965c164ee36,Form,11,0,test,NULL,dentist_C_chosen,no
1534815576,6f803e916d4a194a20dd0965c164ee36,Form,11,0,test,NULL,no_one_chosen,yes
1534815576,6f803e916d4a194a20dd0965c164ee36,Form,11,0,test,NULL,_REACTION_TIME_,23822
1534815576,6f803e916d4a194a20dd0965c164ee36,Form,19,0,ginz,NULL,ginzwhere_largegrain_y_chosen,yes
1534815576,6f803e916d4a194a20dd0965c164ee36,Form,19,0,ginz,NULL,ginzwhere_largegrain_n_chosen,no
1534815576,6f803e916d4a194a20dd0965c164ee36,Form,19,0,ginz,NULL,_REACTION_TIME_,4912
1534815576,6f803e916d4a194a20dd0965c164ee36,Form,8,0,test,NULL,answers_reported,placeholderFriend 1 says%2C "Store A."%2CFriend 2 says%2C "Stores A and B."%2CFriend 3 says%2C "Store F."
1534815576,6f803e916d4a194a20dd0965c164ee36,Form,8,0,test,NULL,shoes_A_chosen,yes
1534815576,6f803e916d4a194a20dd0965c164ee36,Form,8,0,test,NULL,shoes_B_chosen,no
1534815576,6f803e916d4a194a20dd0965c164ee36,Form,8,0,test,NULL,shoes_C_chosen,no
1534815576,6f803e916d4a194a20dd0965c164ee36,Form,8,0,test,NULL,no_one_chosen,no
1534815576,6f803e916d4a194a20dd0965c164ee36,Form,8,0,test,NULL,_REACTION_TIME_,13085
1534815576,6f803e916d4a194a20dd0965c164ee36,Form,15,0,control,NULL,what_A_chosen,no
1534815576,6f803e916d4a194a20dd0965c164ee36,Form,15,0,control,NULL,what_B_chosen,yes
1534815576,6f803e916d4a194a20dd0965c164ee36,Form,15,0,control,NULL,what_C_chosen,no
1534815576,6f803e916d4a194a20dd0965c164ee36,Form,15,0,control,NULL,none_chosen,no
1534815576,6f803e916d4a194a20dd0965c164ee36,Form,15,0,control,NULL,_REACTION_TIME_,17100
1534815576,6f803e916d4a194a20dd0965c164ee36,Form,23,0,nst,NULL,NST_2a_chosen,yes
1534815576,6f803e916d4a194a20dd0965c164ee36,Form,23,0,nst,NULL,NST_2b_chosen,no
1534815576,6f803e916d4a194a20dd0965c164ee36,Form,23,0,nst,NULL,NST_2c_chosen,yes
1534815576,6f803e916d4a194a20dd0965c164ee36,Form,23,0,nst,NULL,NST_2d_chosen,no
1534815576,6f803e916d4a194a20dd0965c164ee36,Form,23,0,nst,NULL,NST_2e_chosen,no
1534815576,6f803e916d4a194a20dd0965c164ee36,Form,23,0,nst,NULL,_REACTION_TIME_,17530
1534815576,6f803e916d4a194a20dd0965c164ee36,Form,13,0,test,NULL,answers_reported,placeholderRoommate 1 says%2C "Cafe E."%2CRoommate 2 says%2C "Cafes D and E."%2CRoommate 3 says%2C "Cafe A."
1534815576,6f803e916d4a194a20dd0965c164ee36,Form,13,0,test,NULL,coffee_A_chosen,no
1534815576,6f803e916d4a194a20dd0965c164ee36,Form,13,0,test,NULL,coffee_B_chosen,no
1534815576,6f803e916d4a194a20dd0965c164ee36,Form,13,0,test,NULL,coffee_C_chosen,yes
1534815576,6f803e916d4a194a20dd0965c164ee36,Form,13,0,test,NULL,no_one_chosen,no
1534815576,6f803e916d4a194a20dd0965c164ee36,Form,13,0,test,NULL,_REACTION_TIME_,8430
1534815576,6f803e916d4a194a20dd0965c164ee36,Form,20,0,ginz,NULL,ginzwho_smallgrain_y_chosen,yes
1534815576,6f803e916d4a194a20dd0965c164ee36,Form,20,0,ginz,NULL,ginzwho_smallgrain_n_chosen,no
1534815576,6f803e916d4a194a20dd0965c164ee36,Form,20,0,ginz,NULL,_REACTION_TIME_,14524
1534815576,6f803e916d4a194a20dd0965c164ee36,Form,14,0,control,NULL,why_A_chosen,yes
1534815576,6f803e916d4a194a20dd0965c164ee36,Form,14,0,control,NULL,why_B_chosen,no
1534815576,6f803e916d4a194a20dd0965c164ee36,Form,14,0,control,NULL,why_C_chosen,no
1534815576,6f803e916d4a194a20dd0965c164ee36,Form,14,0,control,NULL,none_chosen,no
1534815576,6f803e916d4a194a20dd0965c164ee36,Form,14,0,control,NULL,_REACTION_TIME_,16347
1534815576,6f803e916d4a194a20dd0965c164ee36,Form,10,0,test,NULL,answers_reported,placeholderFriend 1 says%2C "Stylist F."%2CFriend 2 says%2C "Stylists A%2C B%2C C%2C D and E."%2CFriend 3 says%2C "Stylists D and E."
1534815576,6f803e916d4a194a20dd0965c164ee36,Form,10,0,test,NULL,hair_A_chosen,no
1534815576,6f803e916d4a194a20dd0965c164ee36,Form,10,0,test,NULL,hair_B_chosen,yes
1534815576,6f803e916d4a194a20dd0965c164ee36,Form,10,0,test,NULL,hair_C_chosen,no
1534815576,6f803e916d4a194a20dd0965c164ee36,Form,10,0,test,NULL,no_one_chosen,no
1534815576,6f803e916d4a194a20dd0965c164ee36,Form,10,0,test,NULL,_REACTION_TIME_,13747
1534815576,6f803e916d4a194a20dd0965c164ee36,Form,25,0,nst,NULL,NST_4a_chosen,no
1534815576,6f803e916d4a194a20dd0965c164ee36,Form,25,0,nst,NULL,NST_4b_chosen,yes
1534815576,6f803e916d4a194a20dd0965c164ee36,Form,25,0,nst,NULL,_REACTION_TIME_,5642
1534815576,6f803e916d4a194a20dd0965c164ee36,Form,18,0,ginz,NULL,ginzwhere_largegrain_y_chosen,yes
1534815576,6f803e916d4a194a20dd0965c164ee36,Form,18,0,ginz,NULL,ginzwhere_largegrain_n_chosen,no
1534815576,6f803e916d4a194a20dd0965c164ee36,Form,18,0,ginz,NULL,_REACTION_TIME_,5303
1534815576,6f803e916d4a194a20dd0965c164ee36,Form,16,0,control,NULL,when_A_chosen,no
1534815576,6f803e916d4a194a20dd0965c164ee36,Form,16,0,control,NULL,when_B_chosen,no
1534815576,6f803e916d4a194a20dd0965c164ee36,Form,16,0,control,NULL,when_C_chosen,yes
1534815576,6f803e916d4a194a20dd0965c164ee36,Form,16,0,control,NULL,none_chosen,no
1534815576,6f803e916d4a194a20dd0965c164ee36,Form,16,0,control,NULL,_REACTION_TIME_,39282
1534815576,6f803e916d4a194a20dd0965c164ee36,Form,6,0,exit_quest,NULL,know_conditons,No%2C I would always give the best options for both questions.
1534815576,6f803e916d4a194a20dd0965c164ee36,Form,6,0,exit_quest,NULL,difficult,no%2C just a little boring
1534815576,6f803e916d4a194a20dd0965c164ee36,Form,6,0,exit_quest,NULL,anything_else,nope
1534815576,6f803e916d4a194a20dd0965c164ee36,Form,6,0,exit_quest,NULL,dummy_checkbox_,yes
1534815576,6f803e916d4a194a20dd0965c164ee36,Form,6,0,exit_quest,NULL,_REACTION_TIME_,31660
#
# Results on Tuesday August 21 2018 01:39:57 UTC.
# USER AGENT: Mozilla/5.0 (Windows NT 10.0; Win64; x64) AppleWebKit/537.36 (KHTML, like Gecko) Chrome/68.0.3440.106 Safari/537.36
# Design number was non-random = 2
#
# Columns below this comment are as follows:
# 1. Time results were received.
# 2. MD5 hash of participant's IP address.
# 3. Controller name.
# 4. Item number.
# 5. Element number.
# 6. Type.
# 7. Group.
# 8. Field name.
# 9. Field value.
1534815597,a15fa87d56cd0455008d751200085ec3,Form,2,0,consent,NULL,subject_id,A34B9FXOCN08RW
1534815597,a15fa87d56cd0455008d751200085ec3,Form,2,0,consent,NULL,native_lang,english
1534815597,a15fa87d56cd0455008d751200085ec3,Form,2,0,consent,NULL,age,32
1534815597,a15fa87d56cd0455008d751200085ec3,Form,2,0,consent,NULL,consent_checkbox_,yes
1534815597,a15fa87d56cd0455008d751200085ec3,Form,2,0,consent,NULL,dummy_checkbox_,yes
1534815597,a15fa87d56cd0455008d751200085ec3,Form,2,0,consent,NULL,sex,male
1534815597,a15fa87d56cd0455008d751200085ec3,Form,2,0,consent,NULL,_REACTION_TIME_,22868
1534815597,a15fa87d56cd0455008d751200085ec3,Form,1,0,instructions,NULL,dummy_checkbox_,yes
1534815597,a15fa87d56cd0455008d751200085ec3,Form,1,0,instructions,NULL,_REACTION_TIME_,4853
1534815597,a15fa87d56cd0455008d751200085ec3,Form,3,0,train,NULL,train_f_A_chosen,no
1534815597,a15fa87d56cd0455008d751200085ec3,Form,3,0,train,NULL,train_f_B_chosen,no
1534815597,a15fa87d56cd0455008d751200085ec3,Form,3,0,train,NULL,train_f_C_chosen,no
1534815597,a15fa87d56cd0455008d751200085ec3,Form,3,0,train,NULL,none_chosen,yes
1534815597,a15fa87d56cd0455008d751200085ec3,Form,3,0,train,NULL,_REACTION_TIME_,23011
1534815597,a15fa87d56cd0455008d751200085ec3,Form,4,0,train,NULL,train_m_A_chosen,no
1534815597,a15fa87d56cd0455008d751200085ec3,Form,4,0,train,NULL,train_m_B_chosen,no
1534815597,a15fa87d56cd0455008d751200085ec3,Form,4,0,train,NULL,train_m_C_chosen,yes
1534815597,a15fa87d56cd0455008d751200085ec3,Form,4,0,train,NULL,none_chosen,no
1534815597,a15fa87d56cd0455008d751200085ec3,Form,4,0,train,NULL,_REACTION_TIME_,34498
1534815597,a15fa87d56cd0455008d751200085ec3,Form,5,0,train_end,NULL,dummy_checkbox_,yes
1534815597,a15fa87d56cd0455008d751200085ec3,Form,5,0,train_end,NULL,_REACTION_TIME_,1629
1534815597,a15fa87d56cd0455008d751200085ec3,Form,11,0,test,NULL,answers_reported,placeholderCoworker 1 says%2C "Dentist F."%2CCoworker 2 says%2C "Dentists D and E."%2CCoworker 3 says%2C "Dentist E."
1534815597,a15fa87d56cd0455008d751200085ec3,Form,11,0,test,NULL,dentist_A_chosen,no
1534815597,a15fa87d56cd0455008d751200085ec3,Form,11,0,test,NULL,dentist_B_chosen,no
1534815597,a15fa87d56cd0455008d751200085ec3,Form,11,0,test,NULL,dentist_C_chosen,yes
1534815597,a15fa87d56cd0455008d751200085ec3,Form,11,0,test,NULL,no_one_chosen,no
1534815597,a15fa87d56cd0455008d751200085ec3,Form,11,0,test,NULL,_REACTION_TIME_,19491
1534815597,a15fa87d56cd0455008d751200085ec3,Form,22,0,nst,NULL,NST_1a_chosen,yes
1534815597,a15fa87d56cd0455008d751200085ec3,Form,22,0,nst,NULL,NST_1b_chosen,no
1534815597,a15fa87d56cd0455008d751200085ec3,Form,22,0,nst,NULL,NST_1c_chosen,no
1534815597,a15fa87d56cd0455008d751200085ec3,Form,22,0,nst,NULL,NST_1d_chosen,yes
1534815597,a15fa87d56cd0455008d751200085ec3,Form,22,0,nst,NULL,_REACTION_TIME_,13851
1534815597,a15fa87d56cd0455008d751200085ec3,Form,13,0,test,NULL,answers_reported,placeholderRoommate 1 says%2C "Cafes D and E."%2CRoommate 2 says%2C "Cafe F."%2CRoommate 3 says%2C "Cafe A."
1534815597,a15fa87d56cd0455008d751200085ec3,Form,13,0,test,NULL,coffee_A_chosen,yes
1534815597,a15fa87d56cd0455008d751200085ec3,Form,13,0,test,NULL,coffee_B_chosen,yes
1534815597,a15fa87d56cd0455008d751200085ec3,Form,13,0,test,NULL,coffee_C_chosen,yes
1534815597,a15fa87d56cd0455008d751200085ec3,Form,13,0,test,NULL,no_one_chosen,no
1534815597,a15fa87d56cd0455008d751200085ec3,Form,13,0,test,NULL,_REACTION_TIME_,89244
1534815597,a15fa87d56cd0455008d751200085ec3,Form,17,0,control,NULL,how_guest_A_chosen,yes
1534815597,a15fa87d56cd0455008d751200085ec3,Form,17,0,control,NULL,how_guest_B_chosen,yes
1534815597,a15fa87d56cd0455008d751200085ec3,Form,17,0,control,NULL,how_guest_C_chosen,yes
1534815597,a15fa87d56cd0455008d751200085ec3,Form,17,0,control,NULL,none_chosen,no
1534815597,a15fa87d56cd0455008d751200085ec3,Form,17,0,control,NULL,_REACTION_TIME_,25075
1534815597,a15fa87d56cd0455008d751200085ec3,Form,20,0,ginz,NULL,ginzwho_smallgrain_y_chosen,yes
1534815597,a15fa87d56cd0455008d751200085ec3,Form,20,0,ginz,NULL,ginzwho_smallgrain_n_chosen,no
1534815597,a15fa87d56cd0455008d751200085ec3,Form,20,0,ginz,NULL,_REACTION_TIME_,43892
1534815597,a15fa87d56cd0455008d751200085ec3,Form,24,0,nst,NULL,NST_3a_chosen,yes
1534815597,a15fa87d56cd0455008d751200085ec3,Form,24,0,nst,NULL,NST_3b_chosen,yes
1534815597,a15fa87d56cd0455008d751200085ec3,Form,24,0,nst,NULL,NST_3c_chosen,no
1534815597,a15fa87d56cd0455008d751200085ec3,Form,24,0,nst,NULL,NST_3d_chosen,no
1534815597,a15fa87d56cd0455008d751200085ec3,Form,24,0,nst,NULL,NST_3e_chosen,no
1534815597,a15fa87d56cd0455008d751200085ec3,Form,24,0,nst,NULL,_REACTION_TIME_,12070
1534815597,a15fa87d56cd0455008d751200085ec3,Form,12,0,test,NULL,answers_reported,placeholderRoommate 1 says%2C "Stalls D and E."%2CRoommate 2 says%2C "Stalls A and B."%2CRoommate 3 says%2C "Stall F."
1534815597,a15fa87d56cd0455008d751200085ec3,Form,12,0,test,NULL,yarn_A_chosen,yes
1534815597,a15fa87d56cd0455008d751200085ec3,Form,12,0,test,NULL,yarn_B_chosen,yes
1534815597,a15fa87d56cd0455008d751200085ec3,Form,12,0,test,NULL,yarn_C_chosen,yes
1534815597,a15fa87d56cd0455008d751200085ec3,Form,12,0,test,NULL,no_one_chosen,no
1534815597,a15fa87d56cd0455008d751200085ec3,Form,12,0,test,NULL,_REACTION_TIME_,12738
1534815597,a15fa87d56cd0455008d751200085ec3,Form,18,0,ginz,NULL,ginzwhere_largegrain_y_chosen,yes
1534815597,a15fa87d56cd0455008d751200085ec3,Form,18,0,ginz,NULL,ginzwhere_largegrain_n_chosen,no
1534815597,a15fa87d56cd0455008d751200085ec3,Form,18,0,ginz,NULL,_REACTION_TIME_,6675
1534815597,a15fa87d56cd0455008d751200085ec3,Form,15,0,control,NULL,what_A_chosen,no
1534815597,a15fa87d56cd0455008d751200085ec3,Form,15,0,control,NULL,what_B_chosen,yes
1534815597,a15fa87d56cd0455008d751200085ec3,Form,15,0,control,NULL,what_C_chosen,no
1534815597,a15fa87d56cd0455008d751200085ec3,Form,15,0,control,NULL,none_chosen,no
1534815597,a15fa87d56cd0455008d751200085ec3,Form,15,0,control,NULL,_REACTION_TIME_,9661
1534815597,a15fa87d56cd0455008d751200085ec3,Form,9,0,test,NULL,answers_reported,placeholderFriend 1 says%2C "Bookstores A and B."%2CFriend 2 says%2C "Bookstores D and E."%2CFriend 3 says%2C "Bookstore E."
1534815597,a15fa87d56cd0455008d751200085ec3,Form,9,0,test,NULL,books_A_chosen,yes
1534815597,a15fa87d56cd0455008d751200085ec3,Form,9,0,test,NULL,books_B_chosen,yes
1534815597,a15fa87d56cd0455008d751200085ec3,Form,9,0,test,NULL,books_C_chosen,yes
1534815597,a15fa87d56cd0455008d751200085ec3,Form,9,0,test,NULL,no_one_chosen,no
1534815597,a15fa87d56cd0455008d751200085ec3,Form,9,0,test,NULL,_REACTION_TIME_,18156
1534815597,a15fa87d56cd0455008d751200085ec3,Form,25,0,nst,NULL,NST_4a_chosen,yes
1534815597,a15fa87d56cd0455008d751200085ec3,Form,25,0,nst,NULL,NST_4b_chosen,no
1534815597,a15fa87d56cd0455008d751200085ec3,Form,25,0,nst,NULL,_REACTION_TIME_,5828
1534815597,a15fa87d56cd0455008d751200085ec3,Form,8,0,test,NULL,answers_reported,placeholderFriend 1 says%2C "Stores A and B."%2CFriend 2 says%2C "Store E."%2CFriend 3 says%2C "Stores D and E."
1534815597,a15fa87d56cd0455008d751200085ec3,Form,8,0,test,NULL,shoes_A_chosen,yes
1534815597,a15fa87d56cd0455008d751200085ec3,Form,8,0,test,NULL,shoes_B_chosen,yes
1534815597,a15fa87d56cd0455008d751200085ec3,Form,8,0,test,NULL,shoes_C_chosen,yes
1534815597,a15fa87d56cd0455008d751200085ec3,Form,8,0,test,NULL,no_one_chosen,no
1534815597,a15fa87d56cd0455008d751200085ec3,Form,8,0,test,NULL,_REACTION_TIME_,14819
1534815597,a15fa87d56cd0455008d751200085ec3,Form,14,0,control,NULL,why_A_chosen,yes
1534815597,a15fa87d56cd0455008d751200085ec3,Form,14,0,control,NULL,why_B_chosen,yes
1534815597,a15fa87d56cd0455008d751200085ec3,Form,14,0,control,NULL,why_C_chosen,no
1534815597,a15fa87d56cd0455008d751200085ec3,Form,14,0,control,NULL,none_chosen,no
1534815597,a15fa87d56cd0455008d751200085ec3,Form,14,0,control,NULL,_REACTION_TIME_,14037
1534815597,a15fa87d56cd0455008d751200085ec3,Form,19,0,ginz,NULL,ginzwhere_largegrain_y_chosen,yes
1534815597,a15fa87d56cd0455008d751200085ec3,Form,19,0,ginz,NULL,ginzwhere_largegrain_n_chosen,no
1534815597,a15fa87d56cd0455008d751200085ec3,Form,19,0,ginz,NULL,_REACTION_TIME_,9925
1534815597,a15fa87d56cd0455008d751200085ec3,Form,10,0,test,NULL,answers_reported,placeholderFriend 1 says%2C "Stylists D and E."%2CFriend 2 says%2C "Stylist E."%2CFriend 3 says%2C "Stylists A and B."
1534815597,a15fa87d56cd0455008d751200085ec3,Form,10,0,test,NULL,hair_A_chosen,yes
1534815597,a15fa87d56cd0455008d751200085ec3,Form,10,0,test,NULL,hair_B_chosen,yes
1534815597,a15fa87d56cd0455008d751200085ec3,Form,10,0,test,NULL,hair_C_chosen,yes
1534815597,a15fa87d56cd0455008d751200085ec3,Form,10,0,test,NULL,no_one_chosen,no
1534815597,a15fa87d56cd0455008d751200085ec3,Form,10,0,test,NULL,_REACTION_TIME_,9308
1534815597,a15fa87d56cd0455008d751200085ec3,Form,23,0,nst,NULL,NST_2a_chosen,yes
1534815597,a15fa87d56cd0455008d751200085ec3,Form,23,0,nst,NULL,NST_2b_chosen,no
1534815597,a15fa87d56cd0455008d751200085ec3,Form,23,0,nst,NULL,NST_2c_chosen,no
1534815597,a15fa87d56cd0455008d751200085ec3,Form,23,0,nst,NULL,NST_2d_chosen,no
1534815597,a15fa87d56cd0455008d751200085ec3,Form,23,0,nst,NULL,NST_2e_chosen,no
1534815597,a15fa87d56cd0455008d751200085ec3,Form,23,0,nst,NULL,_REACTION_TIME_,11588
1534815597,a15fa87d56cd0455008d751200085ec3,Form,21,0,ginz,NULL,ginzwhere_smallgrain_y_chosen,yes
1534815597,a15fa87d56cd0455008d751200085ec3,Form,21,0,ginz,NULL,ginzwhere_smallgrain_n_chosen,no
1534815597,a15fa87d56cd0455008d751200085ec3,Form,21,0,ginz,NULL,_REACTION_TIME_,3768
1534815597,a15fa87d56cd0455008d751200085ec3,Form,16,0,control,NULL,when_A_chosen,yes
1534815597,a15fa87d56cd0455008d751200085ec3,Form,16,0,control,NULL,when_B_chosen,yes
1534815597,a15fa87d56cd0455008d751200085ec3,Form,16,0,control,NULL,when_C_chosen,yes
1534815597,a15fa87d56cd0455008d751200085ec3,Form,16,0,control,NULL,none_chosen,no
1534815597,a15fa87d56cd0455008d751200085ec3,Form,16,0,control,NULL,_REACTION_TIME_,8770
1534815597,a15fa87d56cd0455008d751200085ec3,Form,6,0,exit_quest,NULL,know_conditons,no seems perfect to me.
1534815597,a15fa87d56cd0455008d751200085ec3,Form,6,0,exit_quest,NULL,difficult,I wondered if I was getting tricked with some of the stuff sounding familiar. hope I did the task ok for you. 
1534815597,a15fa87d56cd0455008d751200085ec3,Form,6,0,exit_quest,NULL,anything_else,thank you for allowing me to contribute.
1534815597,a15fa87d56cd0455008d751200085ec3,Form,6,0,exit_quest,NULL,dummy_checkbox_,yes
1534815597,a15fa87d56cd0455008d751200085ec3,Form,6,0,exit_quest,NULL,_REACTION_TIME_,78445
#
# Results on Tuesday August 21 2018 01:40:03 UTC.
# USER AGENT: Mozilla/5.0 (Macintosh; Intel Mac OS X 10.10; rv:61.0) Gecko/20100101 Firefox/61.0
# Design number was non-random = 2
#
# Columns below this comment are as follows:
# 1. Time results were received.
# 2. MD5 hash of participant's IP address.
# 3. Controller name.
# 4. Item number.
# 5. Element number.
# 6. Type.
# 7. Group.
# 8. Field name.
# 9. Field value.
1534815603,e24f87a7ac2ef70328037668f4f5b6a4,Form,2,0,consent,NULL,subject_id,A1YIBSKY9U31X6
1534815603,e24f87a7ac2ef70328037668f4f5b6a4,Form,2,0,consent,NULL,native_lang,English
1534815603,e24f87a7ac2ef70328037668f4f5b6a4,Form,2,0,consent,NULL,age,37
1534815603,e24f87a7ac2ef70328037668f4f5b6a4,Form,2,0,consent,NULL,consent_checkbox_,yes
1534815603,e24f87a7ac2ef70328037668f4f5b6a4,Form,2,0,consent,NULL,dummy_checkbox_,yes
1534815603,e24f87a7ac2ef70328037668f4f5b6a4,Form,2,0,consent,NULL,sex,male
1534815603,e24f87a7ac2ef70328037668f4f5b6a4,Form,2,0,consent,NULL,_REACTION_TIME_,25047
1534815603,e24f87a7ac2ef70328037668f4f5b6a4,Form,1,0,instructions,NULL,dummy_checkbox_,yes
1534815603,e24f87a7ac2ef70328037668f4f5b6a4,Form,1,0,instructions,NULL,_REACTION_TIME_,6015
1534815603,e24f87a7ac2ef70328037668f4f5b6a4,Form,4,0,train,NULL,train_m_A_chosen,no
1534815603,e24f87a7ac2ef70328037668f4f5b6a4,Form,4,0,train,NULL,train_m_B_chosen,no
1534815603,e24f87a7ac2ef70328037668f4f5b6a4,Form,4,0,train,NULL,train_m_C_chosen,yes
1534815603,e24f87a7ac2ef70328037668f4f5b6a4,Form,4,0,train,NULL,none_chosen,yes
1534815603,e24f87a7ac2ef70328037668f4f5b6a4,Form,4,0,train,NULL,_REACTION_TIME_,60344
1534815603,e24f87a7ac2ef70328037668f4f5b6a4,Form,3,0,train,NULL,train_f_A_chosen,no
1534815603,e24f87a7ac2ef70328037668f4f5b6a4,Form,3,0,train,NULL,train_f_B_chosen,no
