#
# Results on Tuesday August 21 2018 10:37:01 UTC.
# USER AGENT: Mozilla/5.0 (Windows NT 6.1; Win64; x64) AppleWebKit/537.36 (KHTML, like Gecko) Chrome/68.0.3440.106 Safari/537.36
# Design number was non-random = 1
#
# Columns below this comment are as follows:
# 1. Time results were received.
# 2. MD5 hash of participant's IP address.
# 3. Controller name.
# 4. Item number.
# 5. Element number.
# 6. Type.
# 7. Group.
# 8. Field name.
# 9. Field value.
1534847822,1df11643a401064f97381706c452baad,Form,2,0,consent,NULL,subject_id,A1JQ3GAFW1XZYZ
1534847822,1df11643a401064f97381706c452baad,Form,2,0,consent,NULL,native_lang,english
1534847822,1df11643a401064f97381706c452baad,Form,2,0,consent,NULL,age,21
1534847822,1df11643a401064f97381706c452baad,Form,2,0,consent,NULL,consent_checkbox_,yes
1534847822,1df11643a401064f97381706c452baad,Form,2,0,consent,NULL,dummy_checkbox_,yes
1534847822,1df11643a401064f97381706c452baad,Form,2,0,consent,NULL,sex,male
1534847822,1df11643a401064f97381706c452baad,Form,2,0,consent,NULL,_REACTION_TIME_,82756
1534847822,1df11643a401064f97381706c452baad,Form,1,0,instructions,NULL,dummy_checkbox_,yes
1534847822,1df11643a401064f97381706c452baad,Form,1,0,instructions,NULL,_REACTION_TIME_,3158
1534847822,1df11643a401064f97381706c452baad,Form,4,0,train,NULL,train_m_A_chosen,no
1534847822,1df11643a401064f97381706c452baad,Form,4,0,train,NULL,train_m_B_chosen,yes
1534847822,1df11643a401064f97381706c452baad,Form,4,0,train,NULL,train_m_C_chosen,no
1534847822,1df11643a401064f97381706c452baad,Form,4,0,train,NULL,none_chosen,no
1534847822,1df11643a401064f97381706c452baad,Form,4,0,train,NULL,_REACTION_TIME_,5812
1534847822,1df11643a401064f97381706c452baad,Form,3,0,train,NULL,train_f_A_chosen,no
1534847822,1df11643a401064f97381706c452baad,Form,3,0,train,NULL,train_f_B_chosen,yes
1534847822,1df11643a401064f97381706c452baad,Form,3,0,train,NULL,train_f_C_chosen,no
1534847822,1df11643a401064f97381706c452baad,Form,3,0,train,NULL,none_chosen,no
1534847822,1df11643a401064f97381706c452baad,Form,3,0,train,NULL,_REACTION_TIME_,2900
1534847822,1df11643a401064f97381706c452baad,Form,5,0,train_end,NULL,dummy_checkbox_,yes
1534847822,1df11643a401064f97381706c452baad,Form,5,0,train_end,NULL,_REACTION_TIME_,2780
1534847822,1df11643a401064f97381706c452baad,Form,9,0,test,NULL,answers_reported,placeholderFriend 1 says%2C "Bookstore A."%2CFriend 2 says%2C "Bookstores D and E."%2CFriend 3 says%2C "Bookstore E."
1534847822,1df11643a401064f97381706c452baad,Form,9,0,test,NULL,books_A_chosen,yes
1534847822,1df11643a401064f97381706c452baad,Form,9,0,test,NULL,books_B_chosen,no
1534847822,1df11643a401064f97381706c452baad,Form,9,0,test,NULL,books_C_chosen,no
1534847822,1df11643a401064f97381706c452baad,Form,9,0,test,NULL,no_one_chosen,no
1534847822,1df11643a401064f97381706c452baad,Form,9,0,test,NULL,_REACTION_TIME_,4852
1534847822,1df11643a401064f97381706c452baad,Form,23,0,nst,NULL,NST_2a_chosen,yes
1534847822,1df11643a401064f97381706c452baad,Form,23,0,nst,NULL,NST_2b_chosen,no
1534847822,1df11643a401064f97381706c452baad,Form,23,0,nst,NULL,NST_2c_chosen,no
1534847822,1df11643a401064f97381706c452baad,Form,23,0,nst,NULL,NST_2d_chosen,no
1534847822,1df11643a401064f97381706c452baad,Form,23,0,nst,NULL,NST_2e_chosen,no
1534847822,1df11643a401064f97381706c452baad,Form,23,0,nst,NULL,_REACTION_TIME_,2788
1534847822,1df11643a401064f97381706c452baad,Form,11,0,test,NULL,answers_reported,placeholderCoworker 1 says%2C "Dentist E."%2CCoworker 2 says%2C "Dentist A."%2CCoworker 3 says%2C "Dentist F."
1534847822,1df11643a401064f97381706c452baad,Form,11,0,test,NULL,dentist_A_chosen,yes
1534847822,1df11643a401064f97381706c452baad,Form,11,0,test,NULL,dentist_B_chosen,no
1534847822,1df11643a401064f97381706c452baad,Form,11,0,test,NULL,dentist_C_chosen,no
1534847822,1df11643a401064f97381706c452baad,Form,11,0,test,NULL,no_one_chosen,no
1534847822,1df11643a401064f97381706c452baad,Form,11,0,test,NULL,_REACTION_TIME_,2733
1534847822,1df11643a401064f97381706c452baad,Form,16,0,control,NULL,when_A_chosen,yes
1534847822,1df11643a401064f97381706c452baad,Form,16,0,control,NULL,when_B_chosen,no
1534847822,1df11643a401064f97381706c452baad,Form,16,0,control,NULL,when_C_chosen,no
1534847822,1df11643a401064f97381706c452baad,Form,16,0,control,NULL,none_chosen,no
1534847822,1df11643a401064f97381706c452baad,Form,16,0,control,NULL,_REACTION_TIME_,2668
1534847822,1df11643a401064f97381706c452baad,Form,18,0,ginz,NULL,ginzwhere_largegrain_y_chosen,yes
1534847822,1df11643a401064f97381706c452baad,Form,18,0,ginz,NULL,ginzwhere_largegrain_n_chosen,no
1534847822,1df11643a401064f97381706c452baad,Form,18,0,ginz,NULL,_REACTION_TIME_,3181
1534847822,1df11643a401064f97381706c452baad,Form,25,0,nst,NULL,NST_4a_chosen,yes
1534847822,1df11643a401064f97381706c452baad,Form,25,0,nst,NULL,NST_4b_chosen,no
1534847822,1df11643a401064f97381706c452baad,Form,25,0,nst,NULL,_REACTION_TIME_,1869
1534847822,1df11643a401064f97381706c452baad,Form,13,0,test,NULL,answers_reported,placeholderRoommate 1 says%2C "Cafe A."%2CRoommate 2 says%2C "Cafes D and E."%2CRoommate 3 says%2C "Cafe E."
1534847822,1df11643a401064f97381706c452baad,Form,13,0,test,NULL,coffee_A_chosen,yes
1534847822,1df11643a401064f97381706c452baad,Form,13,0,test,NULL,coffee_B_chosen,no
1534847822,1df11643a401064f97381706c452baad,Form,13,0,test,NULL,coffee_C_chosen,no
1534847822,1df11643a401064f97381706c452baad,Form,13,0,test,NULL,no_one_chosen,no
1534847822,1df11643a401064f97381706c452baad,Form,13,0,test,NULL,_REACTION_TIME_,2685
1534847822,1df11643a401064f97381706c452baad,Form,21,0,ginz,NULL,ginzwhere_smallgrain_y_chosen,yes
1534847822,1df11643a401064f97381706c452baad,Form,21,0,ginz,NULL,ginzwhere_smallgrain_n_chosen,no
1534847822,1df11643a401064f97381706c452baad,Form,21,0,ginz,NULL,_REACTION_TIME_,2605
1534847822,1df11643a401064f97381706c452baad,Form,14,0,control,NULL,why_A_chosen,no
1534847822,1df11643a401064f97381706c452baad,Form,14,0,control,NULL,why_B_chosen,no
1534847822,1df11643a401064f97381706c452baad,Form,14,0,control,NULL,why_C_chosen,no
1534847822,1df11643a401064f97381706c452baad,Form,14,0,control,NULL,none_chosen,no
1534847822,1df11643a401064f97381706c452baad,Form,14,0,control,NULL,_REACTION_TIME_,1949
1534847822,1df11643a401064f97381706c452baad,Form,10,0,test,NULL,answers_reported,placeholderFriend 1 says%2C "Stylist A."%2CFriend 2 says%2C "Stylist E."%2CFriend 3 says%2C "Stylists D and E."
1534847822,1df11643a401064f97381706c452baad,Form,10,0,test,NULL,hair_A_chosen,no
1534847822,1df11643a401064f97381706c452baad,Form,10,0,test,NULL,hair_B_chosen,yes
1534847822,1df11643a401064f97381706c452baad,Form,10,0,test,NULL,hair_C_chosen,no
1534847822,1df11643a401064f97381706c452baad,Form,10,0,test,NULL,no_one_chosen,no
1534847822,1df11643a401064f97381706c452baad,Form,10,0,test,NULL,_REACTION_TIME_,2957
1534847822,1df11643a401064f97381706c452baad,Form,22,0,nst,NULL,NST_1a_chosen,yes
1534847822,1df11643a401064f97381706c452baad,Form,22,0,nst,NULL,NST_1b_chosen,no
1534847822,1df11643a401064f97381706c452baad,Form,22,0,nst,NULL,NST_1c_chosen,no
1534847822,1df11643a401064f97381706c452baad,Form,22,0,nst,NULL,NST_1d_chosen,no
1534847822,1df11643a401064f97381706c452baad,Form,22,0,nst,NULL,_REACTION_TIME_,2339
1534847822,1df11643a401064f97381706c452baad,Form,12,0,test,NULL,answers_reported,placeholderRoommate 1 says%2C "Stalls A and B."%2CRoommate 2 says%2C "Stalls A%2C B%2C C%2C D and E."%2CRoommate 3 says%2C "Stalls D and E."
1534847822,1df11643a401064f97381706c452baad,Form,12,0,test,NULL,florist_A_chosen,no
1534847822,1df11643a401064f97381706c452baad,Form,12,0,test,NULL,florist_B_chosen,yes
1534847822,1df11643a401064f97381706c452baad,Form,12,0,test,NULL,florist_C_chosen,no
1534847822,1df11643a401064f97381706c452baad,Form,12,0,test,NULL,no_one_chosen,no
1534847822,1df11643a401064f97381706c452baad,Form,12,0,test,NULL,_REACTION_TIME_,6229
1534847822,1df11643a401064f97381706c452baad,Form,17,0,control,NULL,how_guest_A_chosen,no
1534847822,1df11643a401064f97381706c452baad,Form,17,0,control,NULL,how_guest_B_chosen,yes
1534847822,1df11643a401064f97381706c452baad,Form,17,0,control,NULL,how_guest_C_chosen,no
1534847822,1df11643a401064f97381706c452baad,Form,17,0,control,NULL,none_chosen,no
1534847822,1df11643a401064f97381706c452baad,Form,17,0,control,NULL,_REACTION_TIME_,8269
1534847822,1df11643a401064f97381706c452baad,Form,20,0,ginz,NULL,ginzwho_smallgrain_y_chosen,yes
1534847822,1df11643a401064f97381706c452baad,Form,20,0,ginz,NULL,ginzwho_smallgrain_n_chosen,no
1534847822,1df11643a401064f97381706c452baad,Form,20,0,ginz,NULL,_REACTION_TIME_,2285
1534847822,1df11643a401064f97381706c452baad,Form,8,0,test,NULL,answers_reported,placeholderFriend 1 says%2C "Stores D and E."%2CFriend 2 says%2C "Stores A and B."%2CFriend 3 says%2C "Store A."
1534847822,1df11643a401064f97381706c452baad,Form,8,0,test,NULL,shoes_A_chosen,yes
1534847822,1df11643a401064f97381706c452baad,Form,8,0,test,NULL,shoes_B_chosen,no
1534847822,1df11643a401064f97381706c452baad,Form,8,0,test,NULL,shoes_C_chosen,no
1534847822,1df11643a401064f97381706c452baad,Form,8,0,test,NULL,no_one_chosen,no
1534847822,1df11643a401064f97381706c452baad,Form,8,0,test,NULL,_REACTION_TIME_,5316
1534847822,1df11643a401064f97381706c452baad,Form,24,0,nst,NULL,NST_3a_chosen,yes
1534847822,1df11643a401064f97381706c452baad,Form,24,0,nst,NULL,NST_3b_chosen,no
1534847822,1df11643a401064f97381706c452baad,Form,24,0,nst,NULL,NST_3c_chosen,no
1534847822,1df11643a401064f97381706c452baad,Form,24,0,nst,NULL,NST_3d_chosen,no
1534847822,1df11643a401064f97381706c452baad,Form,24,0,nst,NULL,NST_3e_chosen,no
1534847822,1df11643a401064f97381706c452baad,Form,24,0,nst,NULL,_REACTION_TIME_,3334
1534847822,1df11643a401064f97381706c452baad,Form,19,0,ginz,NULL,ginzwhere_largegrain_y_chosen,yes
1534847822,1df11643a401064f97381706c452baad,Form,19,0,ginz,NULL,ginzwhere_largegrain_n_chosen,no
1534847822,1df11643a401064f97381706c452baad,Form,19,0,ginz,NULL,_REACTION_TIME_,3100
1534847822,1df11643a401064f97381706c452baad,Form,15,0,control,NULL,what_A_chosen,yes
1534847822,1df11643a401064f97381706c452baad,Form,15,0,control,NULL,what_B_chosen,no
1534847822,1df11643a401064f97381706c452baad,Form,15,0,control,NULL,what_C_chosen,no
1534847822,1df11643a401064f97381706c452baad,Form,15,0,control,NULL,none_chosen,no
1534847822,1df11643a401064f97381706c452baad,Form,15,0,control,NULL,_REACTION_TIME_,2110
1534847822,1df11643a401064f97381706c452baad,Form,6,0,exit_quest,NULL,know_conditons,good
1534847822,1df11643a401064f97381706c452baad,Form,6,0,exit_quest,NULL,difficult,good
1534847822,1df11643a401064f97381706c452baad,Form,6,0,exit_quest,NULL,anything_else,good
1534847822,1df11643a401064f97381706c452baad,Form,6,0,exit_quest,NULL,dummy_checkbox_,yes
1534847822,1df11643a401064f97381706c452baad,Form,6,0,exit_quest,NULL,_REACTION_TIME_,20125
#
# Results on Tuesday August 21 2018 10:37:03 UTC.
# USER AGENT: Mozilla/5.0 (Windows NT 6.3; Win64; x64) AppleWebKit/537.36 (KHTML, like Gecko) Chrome/68.0.3440.106 Safari/537.36
# Design number was non-random = 1
#
# Columns below this comment are as follows:
# 1. Time results were received.
# 2. MD5 hash of participant's IP address.
# 3. Controller name.
# 4. Item number.
# 5. Element number.
# 6. Type.
# 7. Group.
# 8. Field name.
# 9. Field value.
1534847824,654375d9a6ad68748776184609ab7a5e,Form,2,0,consent,NULL,subject_id,A251YA0XPAWWIQ
1534847824,654375d9a6ad68748776184609ab7a5e,Form,2,0,consent,NULL,native_lang,english
1534847824,654375d9a6ad68748776184609ab7a5e,Form,2,0,consent,NULL,age,32
1534847824,654375d9a6ad68748776184609ab7a5e,Form,2,0,consent,NULL,consent_checkbox_,yes
1534847824,654375d9a6ad68748776184609ab7a5e,Form,2,0,consent,NULL,dummy_checkbox_,yes
1534847824,654375d9a6ad68748776184609ab7a5e,Form,2,0,consent,NULL,sex,female
1534847824,654375d9a6ad68748776184609ab7a5e,Form,2,0,consent,NULL,_REACTION_TIME_,27655
1534847824,654375d9a6ad68748776184609ab7a5e,Form,1,0,instructions,NULL,dummy_checkbox_,yes
1534847824,654375d9a6ad68748776184609ab7a5e,Form,1,0,instructions,NULL,_REACTION_TIME_,5769
1534847824,654375d9a6ad68748776184609ab7a5e,Form,3,0,train,NULL,train_f_A_chosen,no
1534847824,654375d9a6ad68748776184609ab7a5e,Form,3,0,train,NULL,train_f_B_chosen,no
1534847824,654375d9a6ad68748776184609ab7a5e,Form,3,0,train,NULL,train_f_C_chosen,no
1534847824,654375d9a6ad68748776184609ab7a5e,Form,3,0,train,NULL,none_chosen,yes
1534847824,654375d9a6ad68748776184609ab7a5e,Form,3,0,train,NULL,_REACTION_TIME_,23445
1534847824,654375d9a6ad68748776184609ab7a5e,Form,4,0,train,NULL,train_m_A_chosen,no
1534847824,654375d9a6ad68748776184609ab7a5e,Form,4,0,train,NULL,train_m_B_chosen,yes
1534847824,654375d9a6ad68748776184609ab7a5e,Form,4,0,train,NULL,train_m_C_chosen,no
1534847824,654375d9a6ad68748776184609ab7a5e,Form,4,0,train,NULL,none_chosen,no
1534847824,654375d9a6ad68748776184609ab7a5e,Form,4,0,train,NULL,_REACTION_TIME_,17950
1534847824,654375d9a6ad68748776184609ab7a5e,Form,5,0,train_end,NULL,dummy_checkbox_,yes
1534847824,654375d9a6ad68748776184609ab7a5e,Form,5,0,train_end,NULL,_REACTION_TIME_,3509
1534847824,654375d9a6ad68748776184609ab7a5e,Form,11,0,test,NULL,answers_reported,placeholderCoworker 1 says%2C "Dentists D and E."%2CCoworker 2 says%2C "Dentists A and B."%2CCoworker 3 says%2C "Dentist E."
1534847824,654375d9a6ad68748776184609ab7a5e,Form,11,0,test,NULL,dentist_A_chosen,no
1534847824,654375d9a6ad68748776184609ab7a5e,Form,11,0,test,NULL,dentist_B_chosen,no
1534847824,654375d9a6ad68748776184609ab7a5e,Form,11,0,test,NULL,dentist_C_chosen,yes
1534847824,654375d9a6ad68748776184609ab7a5e,Form,11,0,test,NULL,no_one_chosen,no
1534847824,654375d9a6ad68748776184609ab7a5e,Form,11,0,test,NULL,_REACTION_TIME_,32496
1534847824,654375d9a6ad68748776184609ab7a5e,Form,9,0,test,NULL,answers_reported,placeholderFriend 1 says%2C "Bookstores A and B."%2CFriend 2 says%2C "Bookstores A%2C B%2C C%2C D and E."%2CFriend 3 says%2C "Bookstore A."
1534847824,654375d9a6ad68748776184609ab7a5e,Form,9,0,test,NULL,books_A_chosen,no
1534847824,654375d9a6ad68748776184609ab7a5e,Form,9,0,test,NULL,books_B_chosen,no
1534847824,654375d9a6ad68748776184609ab7a5e,Form,9,0,test,NULL,books_C_chosen,yes
1534847824,654375d9a6ad68748776184609ab7a5e,Form,9,0,test,NULL,no_one_chosen,no
1534847824,654375d9a6ad68748776184609ab7a5e,Form,9,0,test,NULL,_REACTION_TIME_,8003
1534847824,654375d9a6ad68748776184609ab7a5e,Form,20,0,ginz,NULL,ginzwho_smallgrain_y_chosen,yes
1534847824,654375d9a6ad68748776184609ab7a5e,Form,20,0,ginz,NULL,ginzwho_smallgrain_n_chosen,no
1534847824,654375d9a6ad68748776184609ab7a5e,Form,20,0,ginz,NULL,_REACTION_TIME_,9270
1534847824,654375d9a6ad68748776184609ab7a5e,Form,16,0,control,NULL,when_A_chosen,no
1534847824,654375d9a6ad68748776184609ab7a5e,Form,16,0,control,NULL,when_B_chosen,no
1534847824,654375d9a6ad68748776184609ab7a5e,Form,16,0,control,NULL,when_C_chosen,yes
1534847824,654375d9a6ad68748776184609ab7a5e,Form,16,0,control,NULL,none_chosen,no
1534847824,654375d9a6ad68748776184609ab7a5e,Form,16,0,control,NULL,_REACTION_TIME_,3347
1534847824,654375d9a6ad68748776184609ab7a5e,Form,23,0,nst,NULL,NST_2a_chosen,yes
1534847824,654375d9a6ad68748776184609ab7a5e,Form,23,0,nst,NULL,NST_2b_chosen,no
1534847824,654375d9a6ad68748776184609ab7a5e,Form,23,0,nst,NULL,NST_2c_chosen,no
1534847824,654375d9a6ad68748776184609ab7a5e,Form,23,0,nst,NULL,NST_2d_chosen,no
1534847824,654375d9a6ad68748776184609ab7a5e,Form,23,0,nst,NULL,NST_2e_chosen,no
1534847824,654375d9a6ad68748776184609ab7a5e,Form,23,0,nst,NULL,_REACTION_TIME_,8420
1534847824,654375d9a6ad68748776184609ab7a5e,Form,10,0,test,NULL,answers_reported,placeholderFriend 1 says%2C "Stylist F."%2CFriend 2 says%2C "Stylist E."%2CFriend 3 says%2C "Stylist A."
1534847824,654375d9a6ad68748776184609ab7a5e,Form,10,0,test,NULL,hair_A_chosen,no
1534847824,654375d9a6ad68748776184609ab7a5e,Form,10,0,test,NULL,hair_B_chosen,no
1534847824,654375d9a6ad68748776184609ab7a5e,Form,10,0,test,NULL,hair_C_chosen,yes
1534847824,654375d9a6ad68748776184609ab7a5e,Form,10,0,test,NULL,no_one_chosen,no
1534847824,654375d9a6ad68748776184609ab7a5e,Form,10,0,test,NULL,_REACTION_TIME_,4341
1534847824,654375d9a6ad68748776184609ab7a5e,Form,18,0,ginz,NULL,ginzwhere_largegrain_y_chosen,no
1534847824,654375d9a6ad68748776184609ab7a5e,Form,18,0,ginz,NULL,ginzwhere_largegrain_n_chosen,yes
1534847824,654375d9a6ad68748776184609ab7a5e,Form,18,0,ginz,NULL,_REACTION_TIME_,3564
1534847824,654375d9a6ad68748776184609ab7a5e,Form,24,0,nst,NULL,NST_3a_chosen,no
1534847824,654375d9a6ad68748776184609ab7a5e,Form,24,0,nst,NULL,NST_3b_chosen,yes
1534847824,654375d9a6ad68748776184609ab7a5e,Form,24,0,nst,NULL,NST_3c_chosen,no
1534847824,654375d9a6ad68748776184609ab7a5e,Form,24,0,nst,NULL,NST_3d_chosen,no
1534847824,654375d9a6ad68748776184609ab7a5e,Form,24,0,nst,NULL,NST_3e_chosen,no
1534847824,654375d9a6ad68748776184609ab7a5e,Form,24,0,nst,NULL,_REACTION_TIME_,2465
1534847824,654375d9a6ad68748776184609ab7a5e,Form,15,0,control,NULL,what_A_chosen,no
1534847824,654375d9a6ad68748776184609ab7a5e,Form,15,0,control,NULL,what_B_chosen,no
1534847824,654375d9a6ad68748776184609ab7a5e,Form,15,0,control,NULL,what_C_chosen,yes
1534847824,654375d9a6ad68748776184609ab7a5e,Form,15,0,control,NULL,none_chosen,no
1534847824,654375d9a6ad68748776184609ab7a5e,Form,15,0,control,NULL,_REACTION_TIME_,7565
1534847824,654375d9a6ad68748776184609ab7a5e,Form,12,0,test,NULL,answers_reported,placeholderRoommate 1 says%2C "Stalls A and B."%2CRoommate 2 says%2C "Stall E."%2CRoommate 3 says%2C "Stall F."
1534847824,654375d9a6ad68748776184609ab7a5e,Form,12,0,test,NULL,florist_A_chosen,no
1534847824,654375d9a6ad68748776184609ab7a5e,Form,12,0,test,NULL,florist_B_chosen,no
1534847824,654375d9a6ad68748776184609ab7a5e,Form,12,0,test,NULL,florist_C_chosen,yes
1534847824,654375d9a6ad68748776184609ab7a5e,Form,12,0,test,NULL,no_one_chosen,no
1534847824,654375d9a6ad68748776184609ab7a5e,Form,12,0,test,NULL,_REACTION_TIME_,5535
1534847824,654375d9a6ad68748776184609ab7a5e,Form,8,0,test,NULL,answers_reported,placeholderFriend 1 says%2C "Stores D and E."%2CFriend 2 says%2C "Store A."%2CFriend 3 says%2C "Store E."
1534847824,654375d9a6ad68748776184609ab7a5e,Form,8,0,test,NULL,shoes_A_chosen,no
1534847824,654375d9a6ad68748776184609ab7a5e,Form,8,0,test,NULL,shoes_B_chosen,no
1534847824,654375d9a6ad68748776184609ab7a5e,Form,8,0,test,NULL,shoes_C_chosen,yes
1534847824,654375d9a6ad68748776184609ab7a5e,Form,8,0,test,NULL,no_one_chosen,no
1534847824,654375d9a6ad68748776184609ab7a5e,Form,8,0,test,NULL,_REACTION_TIME_,3813
1534847824,654375d9a6ad68748776184609ab7a5e,Form,21,0,ginz,NULL,ginzwhere_smallgrain_y_chosen,yes
1534847824,654375d9a6ad68748776184609ab7a5e,Form,21,0,ginz,NULL,ginzwhere_smallgrain_n_chosen,yes
1534847824,654375d9a6ad68748776184609ab7a5e,Form,21,0,ginz,NULL,_REACTION_TIME_,5134
1534847824,654375d9a6ad68748776184609ab7a5e,Form,14,0,control,NULL,why_A_chosen,no
1534847824,654375d9a6ad68748776184609ab7a5e,Form,14,0,control,NULL,why_B_chosen,no
1534847824,654375d9a6ad68748776184609ab7a5e,Form,14,0,control,NULL,why_C_chosen,yes
1534847824,654375d9a6ad68748776184609ab7a5e,Form,14,0,control,NULL,none_chosen,no
1534847824,654375d9a6ad68748776184609ab7a5e,Form,14,0,control,NULL,_REACTION_TIME_,13521
1534847824,654375d9a6ad68748776184609ab7a5e,Form,22,0,nst,NULL,NST_1a_chosen,no
1534847824,654375d9a6ad68748776184609ab7a5e,Form,22,0,nst,NULL,NST_1b_chosen,yes
1534847824,654375d9a6ad68748776184609ab7a5e,Form,22,0,nst,NULL,NST_1c_chosen,no
1534847824,654375d9a6ad68748776184609ab7a5e,Form,22,0,nst,NULL,NST_1d_chosen,no
1534847824,654375d9a6ad68748776184609ab7a5e,Form,22,0,nst,NULL,_REACTION_TIME_,3031
1534847824,654375d9a6ad68748776184609ab7a5e,Form,13,0,test,NULL,answers_reported,placeholderRoommate 1 says%2C "Cafes D and E."%2CRoommate 2 says%2C "Cafe A."%2CRoommate 3 says%2C "Cafe E."
1534847824,654375d9a6ad68748776184609ab7a5e,Form,13,0,test,NULL,coffee_A_chosen,yes
1534847824,654375d9a6ad68748776184609ab7a5e,Form,13,0,test,NULL,coffee_B_chosen,no
1534847824,654375d9a6ad68748776184609ab7a5e,Form,13,0,test,NULL,coffee_C_chosen,no
1534847824,654375d9a6ad68748776184609ab7a5e,Form,13,0,test,NULL,no_one_chosen,no
1534847824,654375d9a6ad68748776184609ab7a5e,Form,13,0,test,NULL,_REACTION_TIME_,5374
1534847824,654375d9a6ad68748776184609ab7a5e,Form,19,0,ginz,NULL,ginzwhere_largegrain_y_chosen,no
1534847824,654375d9a6ad68748776184609ab7a5e,Form,19,0,ginz,NULL,ginzwhere_largegrain_n_chosen,no
1534847824,654375d9a6ad68748776184609ab7a5e,Form,19,0,ginz,NULL,_REACTION_TIME_,3075
1534847824,654375d9a6ad68748776184609ab7a5e,Form,25,0,nst,NULL,NST_4a_chosen,yes
1534847824,654375d9a6ad68748776184609ab7a5e,Form,25,0,nst,NULL,NST_4b_chosen,no
1534847824,654375d9a6ad68748776184609ab7a5e,Form,25,0,nst,NULL,_REACTION_TIME_,4735
1534847824,654375d9a6ad68748776184609ab7a5e,Form,17,0,control,NULL,how_guest_A_chosen,no
1534847824,654375d9a6ad68748776184609ab7a5e,Form,17,0,control,NULL,how_guest_B_chosen,no
1534847824,654375d9a6ad68748776184609ab7a5e,Form,17,0,control,NULL,how_guest_C_chosen,yes
1534847824,654375d9a6ad68748776184609ab7a5e,Form,17,0,control,NULL,none_chosen,no
1534847824,654375d9a6ad68748776184609ab7a5e,Form,17,0,control,NULL,_REACTION_TIME_,3742
1534847824,654375d9a6ad68748776184609ab7a5e,Form,6,0,exit_quest,NULL,know_conditons,
1534847824,654375d9a6ad68748776184609ab7a5e,Form,6,0,exit_quest,NULL,difficult,
1534847824,654375d9a6ad68748776184609ab7a5e,Form,6,0,exit_quest,NULL,anything_else,
1534847824,654375d9a6ad68748776184609ab7a5e,Form,6,0,exit_quest,NULL,dummy_checkbox_,yes
1534847824,654375d9a6ad68748776184609ab7a5e,Form,6,0,exit_quest,NULL,_REACTION_TIME_,3967
#
# Results on Tuesday August 21 2018 10:38:04 UTC.
# USER AGENT: Mozilla/5.0 (Windows NT 6.1; Win64; x64) AppleWebKit/537.36 (KHTML, like Gecko) Chrome/68.0.3440.106 Safari/537.36
# Design number was non-random = 1
#
# Columns below this comment are as follows:
# 1. Time results were received.
# 2. MD5 hash of participant's IP address.
# 3. Controller name.
# 4. Item number.
# 5. Element number.
# 6. Type.
# 7. Group.
# 8. Field name.
# 9. Field value.
1534847885,5c155afd652e500be7fc57687860d2d7,Form,2,0,consent,NULL,subject_id,A3PLDW841STU8B
1534847885,5c155afd652e500be7fc57687860d2d7,Form,2,0,consent,NULL,native_lang,english
1534847885,5c155afd652e500be7fc57687860d2d7,Form,2,0,consent,NULL,age,21
1534847885,5c155afd652e500be7fc57687860d2d7,Form,2,0,consent,NULL,consent_checkbox_,no
1534847885,5c155afd652e500be7fc57687860d2d7,Form,2,0,consent,NULL,dummy_checkbox_,yes
1534847885,5c155afd652e500be7fc57687860d2d7,Form,2,0,consent,NULL,sex,male
1534847885,5c155afd652e500be7fc57687860d2d7,Form,2,0,consent,NULL,_REACTION_TIME_,35676
1534847885,5c155afd652e500be7fc57687860d2d7,Form,1,0,instructions,NULL,dummy_checkbox_,yes
1534847885,5c155afd652e500be7fc57687860d2d7,Form,1,0,instructions,NULL,_REACTION_TIME_,3739
1534847885,5c155afd652e500be7fc57687860d2d7,Form,3,0,train,NULL,train_f_A_chosen,yes
1534847885,5c155afd652e500be7fc57687860d2d7,Form,3,0,train,NULL,train_f_B_chosen,no
1534847885,5c155afd652e500be7fc57687860d2d7,Form,3,0,train,NULL,train_f_C_chosen,no
1534847885,5c155afd652e500be7fc57687860d2d7,Form,3,0,train,NULL,none_chosen,no
1534847885,5c155afd652e500be7fc57687860d2d7,Form,3,0,train,NULL,_REACTION_TIME_,28897
1534847885,5c155afd652e500be7fc57687860d2d7,Form,4,0,train,NULL,train_m_A_chosen,no
1534847885,5c155afd652e500be7fc57687860d2d7,Form,4,0,train,NULL,train_m_B_chosen,no
1534847885,5c155afd652e500be7fc57687860d2d7,Form,4,0,train,NULL,train_m_C_chosen,yes
1534847885,5c155afd652e500be7fc57687860d2d7,Form,4,0,train,NULL,none_chosen,no
1534847885,5c155afd652e500be7fc57687860d2d7,Form,4,0,train,NULL,_REACTION_TIME_,5361
1534847885,5c155afd652e500be7fc57687860d2d7,Form,5,0,train_end,NULL,dummy_checkbox_,yes
1534847885,5c155afd652e500be7fc57687860d2d7,Form,5,0,train_end,NULL,_REACTION_TIME_,1379
1534847885,5c155afd652e500be7fc57687860d2d7,Form,13,0,test,NULL,answers_reported,placeholderRoommate 1 says%2C "Cafe F."%2CRoommate 2 says%2C "Cafe E."%2CRoommate 3 says%2C "Cafes A and B."
1534847885,5c155afd652e500be7fc57687860d2d7,Form,13,0,test,NULL,coffee_A_chosen,no
1534847885,5c155afd652e500be7fc57687860d2d7,Form,13,0,test,NULL,coffee_B_chosen,yes
1534847885,5c155afd652e500be7fc57687860d2d7,Form,13,0,test,NULL,coffee_C_chosen,no
1534847885,5c155afd652e500be7fc57687860d2d7,Form,13,0,test,NULL,no_one_chosen,no
1534847885,5c155afd652e500be7fc57687860d2d7,Form,13,0,test,NULL,_REACTION_TIME_,6496
1534847885,5c155afd652e500be7fc57687860d2d7,Form,23,0,nst,NULL,NST_2a_chosen,no
1534847885,5c155afd652e500be7fc57687860d2d7,Form,23,0,nst,NULL,NST_2b_chosen,yes
1534847885,5c155afd652e500be7fc57687860d2d7,Form,23,0,nst,NULL,NST_2c_chosen,no
1534847885,5c155afd652e500be7fc57687860d2d7,Form,23,0,nst,NULL,NST_2d_chosen,no
1534847885,5c155afd652e500be7fc57687860d2d7,Form,23,0,nst,NULL,NST_2e_chosen,no
1534847885,5c155afd652e500be7fc57687860d2d7,Form,23,0,nst,NULL,_REACTION_TIME_,5508
1534847885,5c155afd652e500be7fc57687860d2d7,Form,18,0,ginz,NULL,ginzwhere_largegrain_y_chosen,yes
1534847885,5c155afd652e500be7fc57687860d2d7,Form,18,0,ginz,NULL,ginzwhere_largegrain_n_chosen,no
1534847885,5c155afd652e500be7fc57687860d2d7,Form,18,0,ginz,NULL,_REACTION_TIME_,13630
1534847885,5c155afd652e500be7fc57687860d2d7,Form,16,0,control,NULL,when_A_chosen,yes
1534847885,5c155afd652e500be7fc57687860d2d7,Form,16,0,control,NULL,when_B_chosen,no
1534847885,5c155afd652e500be7fc57687860d2d7,Form,16,0,control,NULL,when_C_chosen,no
1534847885,5c155afd652e500be7fc57687860d2d7,Form,16,0,control,NULL,none_chosen,no
1534847885,5c155afd652e500be7fc57687860d2d7,Form,16,0,control,NULL,_REACTION_TIME_,4533
1534847885,5c155afd652e500be7fc57687860d2d7,Form,12,0,test,NULL,answers_reported,placeholderRoommate 1 says%2C "Stall E."%2CRoommate 2 says%2C "Stall A."%2CRoommate 3 says%2C "Stall F."
1534847885,5c155afd652e500be7fc57687860d2d7,Form,12,0,test,NULL,florist_A_chosen,no
1534847885,5c155afd652e500be7fc57687860d2d7,Form,12,0,test,NULL,florist_B_chosen,no
1534847885,5c155afd652e500be7fc57687860d2d7,Form,12,0,test,NULL,florist_C_chosen,yes
1534847885,5c155afd652e500be7fc57687860d2d7,Form,12,0,test,NULL,no_one_chosen,no
1534847885,5c155afd652e500be7fc57687860d2d7,Form,12,0,test,NULL,_REACTION_TIME_,3773
1534847885,5c155afd652e500be7fc57687860d2d7,Form,22,0,nst,NULL,NST_1a_chosen,no
1534847885,5c155afd652e500be7fc57687860d2d7,Form,22,0,nst,NULL,NST_1b_chosen,yes
1534847885,5c155afd652e500be7fc57687860d2d7,Form,22,0,nst,NULL,NST_1c_chosen,no
1534847885,5c155afd652e500be7fc57687860d2d7,Form,22,0,nst,NULL,NST_1d_chosen,no
1534847885,5c155afd652e500be7fc57687860d2d7,Form,22,0,nst,NULL,_REACTION_TIME_,2712
1534847885,5c155afd652e500be7fc57687860d2d7,Form,21,0,ginz,NULL,ginzwhere_smallgrain_y_chosen,yes
1534847885,5c155afd652e500be7fc57687860d2d7,Form,21,0,ginz,NULL,ginzwhere_smallgrain_n_chosen,no
1534847885,5c155afd652e500be7fc57687860d2d7,Form,21,0,ginz,NULL,_REACTION_TIME_,3602
1534847885,5c155afd652e500be7fc57687860d2d7,Form,9,0,test,NULL,answers_reported,placeholderFriend 1 says%2C "Bookstores D and E."%2CFriend 2 says%2C "Bookstore E."%2CFriend 3 says%2C "Bookstore F."
1534847885,5c155afd652e500be7fc57687860d2d7,Form,9,0,test,NULL,books_A_chosen,no
1534847885,5c155afd652e500be7fc57687860d2d7,Form,9,0,test,NULL,books_B_chosen,no
1534847885,5c155afd652e500be7fc57687860d2d7,Form,9,0,test,NULL,books_C_chosen,yes
1534847885,5c155afd652e500be7fc57687860d2d7,Form,9,0,test,NULL,no_one_chosen,no
1534847885,5c155afd652e500be7fc57687860d2d7,Form,9,0,test,NULL,_REACTION_TIME_,3994
1534847885,5c155afd652e500be7fc57687860d2d7,Form,17,0,control,NULL,how_guest_A_chosen,no
1534847885,5c155afd652e500be7fc57687860d2d7,Form,17,0,control,NULL,how_guest_B_chosen,no
1534847885,5c155afd652e500be7fc57687860d2d7,Form,17,0,control,NULL,how_guest_C_chosen,yes
1534847885,5c155afd652e500be7fc57687860d2d7,Form,17,0,control,NULL,none_chosen,no
1534847885,5c155afd652e500be7fc57687860d2d7,Form,17,0,control,NULL,_REACTION_TIME_,2433
1534847885,5c155afd652e500be7fc57687860d2d7,Form,8,0,test,NULL,answers_reported,placeholderFriend 1 says%2C "Store F."%2CFriend 2 says%2C "Stores D and E."%2CFriend 3 says%2C "Stores A%2C B%2C C%2C D and E."
1534847885,5c155afd652e500be7fc57687860d2d7,Form,8,0,test,NULL,shoes_A_chosen,no
1534847885,5c155afd652e500be7fc57687860d2d7,Form,8,0,test,NULL,shoes_B_chosen,yes
1534847885,5c155afd652e500be7fc57687860d2d7,Form,8,0,test,NULL,shoes_C_chosen,no
1534847885,5c155afd652e500be7fc57687860d2d7,Form,8,0,test,NULL,no_one_chosen,no
1534847885,5c155afd652e500be7fc57687860d2d7,Form,8,0,test,NULL,_REACTION_TIME_,2977
1534847885,5c155afd652e500be7fc57687860d2d7,Form,24,0,nst,NULL,NST_3a_chosen,no
1534847885,5c155afd652e500be7fc57687860d2d7,Form,24,0,nst,NULL,NST_3b_chosen,yes
1534847885,5c155afd652e500be7fc57687860d2d7,Form,24,0,nst,NULL,NST_3c_chosen,no
1534847885,5c155afd652e500be7fc57687860d2d7,Form,24,0,nst,NULL,NST_3d_chosen,no
1534847885,5c155afd652e500be7fc57687860d2d7,Form,24,0,nst,NULL,NST_3e_chosen,no
1534847885,5c155afd652e500be7fc57687860d2d7,Form,24,0,nst,NULL,_REACTION_TIME_,3572
1534847885,5c155afd652e500be7fc57687860d2d7,Form,19,0,ginz,NULL,ginzwhere_largegrain_y_chosen,yes
1534847885,5c155afd652e500be7fc57687860d2d7,Form,19,0,ginz,NULL,ginzwhere_largegrain_n_chosen,no
1534847885,5c155afd652e500be7fc57687860d2d7,Form,19,0,ginz,NULL,_REACTION_TIME_,8708
1534847885,5c155afd652e500be7fc57687860d2d7,Form,14,0,control,NULL,why_A_chosen,no
1534847885,5c155afd652e500be7fc57687860d2d7,Form,14,0,control,NULL,why_B_chosen,no
1534847885,5c155afd652e500be7fc57687860d2d7,Form,14,0,control,NULL,why_C_chosen,yes
1534847885,5c155afd652e500be7fc57687860d2d7,Form,14,0,control,NULL,none_chosen,no
1534847885,5c155afd652e500be7fc57687860d2d7,Form,14,0,control,NULL,_REACTION_TIME_,3155
1534847885,5c155afd652e500be7fc57687860d2d7,Form,10,0,test,NULL,answers_reported,placeholderFriend 1 says%2C "Stylist E."%2CFriend 2 says%2C "Stylist A."%2CFriend 3 says%2C "Stylists A%2C B%2C C%2C D and E."
1534847885,5c155afd652e500be7fc57687860d2d7,Form,10,0,test,NULL,hair_A_chosen,no
1534847885,5c155afd652e500be7fc57687860d2d7,Form,10,0,test,NULL,hair_B_chosen,yes
1534847885,5c155afd652e500be7fc57687860d2d7,Form,10,0,test,NULL,hair_C_chosen,no
1534847885,5c155afd652e500be7fc57687860d2d7,Form,10,0,test,NULL,no_one_chosen,no
1534847885,5c155afd652e500be7fc57687860d2d7,Form,10,0,test,NULL,_REACTION_TIME_,4169
1534847885,5c155afd652e500be7fc57687860d2d7,Form,11,0,test,NULL,answers_reported,placeholderCoworker 1 says%2C "Dentists A and B."%2CCoworker 2 says%2C "Dentist E."%2CCoworker 3 says%2C "Dentists A%2C B%2C C%2C D and E."
1534847885,5c155afd652e500be7fc57687860d2d7,Form,11,0,test,NULL,dentist_A_chosen,yes
1534847885,5c155afd652e500be7fc57687860d2d7,Form,11,0,test,NULL,dentist_B_chosen,no
1534847885,5c155afd652e500be7fc57687860d2d7,Form,11,0,test,NULL,dentist_C_chosen,no
1534847885,5c155afd652e500be7fc57687860d2d7,Form,11,0,test,NULL,no_one_chosen,no
1534847885,5c155afd652e500be7fc57687860d2d7,Form,11,0,test,NULL,_REACTION_TIME_,2273
1534847885,5c155afd652e500be7fc57687860d2d7,Form,25,0,nst,NULL,NST_4a_chosen,yes
1534847885,5c155afd652e500be7fc57687860d2d7,Form,25,0,nst,NULL,NST_4b_chosen,yes
1534847885,5c155afd652e500be7fc57687860d2d7,Form,25,0,nst,NULL,_REACTION_TIME_,5739
1534847885,5c155afd652e500be7fc57687860d2d7,Form,20,0,ginz,NULL,ginzwho_smallgrain_y_chosen,no
1534847885,5c155afd652e500be7fc57687860d2d7,Form,20,0,ginz,NULL,ginzwho_smallgrain_n_chosen,no
1534847885,5c155afd652e500be7fc57687860d2d7,Form,20,0,ginz,NULL,_REACTION_TIME_,3875
1534847885,5c155afd652e500be7fc57687860d2d7,Form,15,0,control,NULL,what_A_chosen,no
1534847885,5c155afd652e500be7fc57687860d2d7,Form,15,0,control,NULL,what_B_chosen,yes
1534847885,5c155afd652e500be7fc57687860d2d7,Form,15,0,control,NULL,what_C_chosen,no
1534847885,5c155afd652e500be7fc57687860d2d7,Form,15,0,control,NULL,none_chosen,no
1534847885,5c155afd652e500be7fc57687860d2d7,Form,15,0,control,NULL,_REACTION_TIME_,1882
1534847885,5c155afd652e500be7fc57687860d2d7,Form,6,0,exit_quest,NULL,know_conditons,good
1534847885,5c155afd652e500be7fc57687860d2d7,Form,6,0,exit_quest,NULL,difficult,very good
1534847885,5c155afd652e500be7fc57687860d2d7,Form,6,0,exit_quest,NULL,anything_else,knoweldge
1534847885,5c155afd652e500be7fc57687860d2d7,Form,6,0,exit_quest,NULL,dummy_checkbox_,yes
1534847885,5c155afd652e500be7fc57687860d2d7,Form,6,0,exit_quest,NULL,_REACTION_TIME_,114571
#
# Results on Tuesday August 21 2018 10:38:12 UTC.
# USER AGENT: Mozilla/5.0 (Windows NT 6.1; Win64; x64) AppleWebKit/537.36 (KHTML, like Gecko) Chrome/68.0.3440.106 Safari/537.36
# Design number was non-random = 1
#
# Columns below this comment are as follows:
# 1. Time results were received.
# 2. MD5 hash of participant's IP address.
# 3. Controller name.
# 4. Item number.
# 5. Element number.
# 6. Type.
# 7. Group.
# 8. Field name.
# 9. Field value.
1534847892,1df11643a401064f97381706c452baad,Form,2,0,consent,NULL,subject_id,A3A4UFCFF9DMW3
1534847892,1df11643a401064f97381706c452baad,Form,2,0,consent,NULL,native_lang,english
1534847892,1df11643a401064f97381706c452baad,Form,2,0,consent,NULL,age,22
1534847892,1df11643a401064f97381706c452baad,Form,2,0,consent,NULL,consent_checkbox_,yes
1534847892,1df11643a401064f97381706c452baad,Form,2,0,consent,NULL,dummy_checkbox_,yes
1534847892,1df11643a401064f97381706c452baad,Form,2,0,consent,NULL,sex,male
1534847892,1df11643a401064f97381706c452baad,Form,2,0,consent,NULL,_REACTION_TIME_,28126
1534847892,1df11643a401064f97381706c452baad,Form,1,0,instructions,NULL,dummy_checkbox_,yes
1534847892,1df11643a401064f97381706c452baad,Form,1,0,instructions,NULL,_REACTION_TIME_,2148
1534847892,1df11643a401064f97381706c452baad,Form,3,0,train,NULL,train_f_A_chosen,no
1534847892,1df11643a401064f97381706c452baad,Form,3,0,train,NULL,train_f_B_chosen,no
1534847892,1df11643a401064f97381706c452baad,Form,3,0,train,NULL,train_f_C_chosen,yes
1534847892,1df11643a401064f97381706c452baad,Form,3,0,train,NULL,none_chosen,no
1534847892,1df11643a401064f97381706c452baad,Form,3,0,train,NULL,_REACTION_TIME_,10890
1534847892,1df11643a401064f97381706c452baad,Form,4,0,train,NULL,train_m_A_chosen,yes
1534847892,1df11643a401064f97381706c452baad,Form,4,0,train,NULL,train_m_B_chosen,no
1534847892,1df11643a401064f97381706c452baad,Form,4,0,train,NULL,train_m_C_chosen,no
1534847892,1df11643a401064f97381706c452baad,Form,4,0,train,NULL,none_chosen,no
1534847892,1df11643a401064f97381706c452baad,Form,4,0,train,NULL,_REACTION_TIME_,10071
1534847892,1df11643a401064f97381706c452baad,Form,5,0,train_end,NULL,dummy_checkbox_,yes
1534847892,1df11643a401064f97381706c452baad,Form,5,0,train_end,NULL,_REACTION_TIME_,3787
1534847892,1df11643a401064f97381706c452baad,Form,11,0,test,NULL,answers_reported,placeholderCoworker 1 says%2C "Dentists A and B."%2CCoworker 2 says%2C "Dentist E."%2CCoworker 3 says%2C "Dentist A."
1534847892,1df11643a401064f97381706c452baad,Form,11,0,test,NULL,dentist_A_chosen,no
1534847892,1df11643a401064f97381706c452baad,Form,11,0,test,NULL,dentist_B_chosen,yes
1534847892,1df11643a401064f97381706c452baad,Form,11,0,test,NULL,dentist_C_chosen,no
1534847892,1df11643a401064f97381706c452baad,Form,11,0,test,NULL,no_one_chosen,no
1534847892,1df11643a401064f97381706c452baad,Form,11,0,test,NULL,_REACTION_TIME_,5944
1534847892,1df11643a401064f97381706c452baad,Form,9,0,test,NULL,answers_reported,placeholderFriend 1 says%2C "Bookstore E."%2CFriend 2 says%2C "Bookstores A and B."%2CFriend 3 says%2C "Bookstores D and E."
1534847892,1df11643a401064f97381706c452baad,Form,9,0,test,NULL,books_A_chosen,no
1534847892,1df11643a401064f97381706c452baad,Form,9,0,test,NULL,books_B_chosen,no
1534847892,1df11643a401064f97381706c452baad,Form,9,0,test,NULL,books_C_chosen,yes
1534847892,1df11643a401064f97381706c452baad,Form,9,0,test,NULL,no_one_chosen,no
1534847892,1df11643a401064f97381706c452baad,Form,9,0,test,NULL,_REACTION_TIME_,7010
1534847892,1df11643a401064f97381706c452baad,Form,25,0,nst,NULL,NST_4a_chosen,yes
1534847892,1df11643a401064f97381706c452baad,Form,25,0,nst,NULL,NST_4b_chosen,no
1534847892,1df11643a401064f97381706c452baad,Form,25,0,nst,NULL,_REACTION_TIME_,13784
1534847892,1df11643a401064f97381706c452baad,Form,15,0,control,NULL,what_A_chosen,no
1534847892,1df11643a401064f97381706c452baad,Form,15,0,control,NULL,what_B_chosen,yes
1534847892,1df11643a401064f97381706c452baad,Form,15,0,control,NULL,what_C_chosen,no
1534847892,1df11643a401064f97381706c452baad,Form,15,0,control,NULL,none_chosen,no
1534847892,1df11643a401064f97381706c452baad,Form,15,0,control,NULL,_REACTION_TIME_,5275
1534847892,1df11643a401064f97381706c452baad,Form,18,0,ginz,NULL,ginzwhere_largegrain_y_chosen,yes
1534847892,1df11643a401064f97381706c452baad,Form,18,0,ginz,NULL,ginzwhere_largegrain_n_chosen,no
1534847892,1df11643a401064f97381706c452baad,Form,18,0,ginz,NULL,_REACTION_TIME_,4257
1534847892,1df11643a401064f97381706c452baad,Form,8,0,test,NULL,answers_reported,placeholderFriend 1 says%2C "Stores D and E."%2CFriend 2 says%2C "Stores A%2C B%2C C%2C D and E."%2CFriend 3 says%2C "Store E."
1534847892,1df11643a401064f97381706c452baad,Form,8,0,test,NULL,shoes_A_chosen,no
1534847892,1df11643a401064f97381706c452baad,Form,8,0,test,NULL,shoes_B_chosen,no
1534847892,1df11643a401064f97381706c452baad,Form,8,0,test,NULL,shoes_C_chosen,yes
1534847892,1df11643a401064f97381706c452baad,Form,8,0,test,NULL,no_one_chosen,no
1534847892,1df11643a401064f97381706c452baad,Form,8,0,test,NULL,_REACTION_TIME_,6752
1534847892,1df11643a401064f97381706c452baad,Form,23,0,nst,NULL,NST_2a_chosen,no
1534847892,1df11643a401064f97381706c452baad,Form,23,0,nst,NULL,NST_2b_chosen,yes
1534847892,1df11643a401064f97381706c452baad,Form,23,0,nst,NULL,NST_2c_chosen,no
1534847892,1df11643a401064f97381706c452baad,Form,23,0,nst,NULL,NST_2d_chosen,no
1534847892,1df11643a401064f97381706c452baad,Form,23,0,nst,NULL,NST_2e_chosen,no
1534847892,1df11643a401064f97381706c452baad,Form,23,0,nst,NULL,_REACTION_TIME_,4970
1534847892,1df11643a401064f97381706c452baad,Form,20,0,ginz,NULL,ginzwho_smallgrain_y_chosen,yes
1534847892,1df11643a401064f97381706c452baad,Form,20,0,ginz,NULL,ginzwho_smallgrain_n_chosen,no
1534847892,1df11643a401064f97381706c452baad,Form,20,0,ginz,NULL,_REACTION_TIME_,6899
1534847892,1df11643a401064f97381706c452baad,Form,17,0,control,NULL,how_guest_A_chosen,no
1534847892,1df11643a401064f97381706c452baad,Form,17,0,control,NULL,how_guest_B_chosen,yes
1534847892,1df11643a401064f97381706c452baad,Form,17,0,control,NULL,how_guest_C_chosen,no
1534847892,1df11643a401064f97381706c452baad,Form,17,0,control,NULL,none_chosen,no
1534847892,1df11643a401064f97381706c452baad,Form,17,0,control,NULL,_REACTION_TIME_,3195
1534847892,1df11643a401064f97381706c452baad,Form,10,0,test,NULL,answers_reported,placeholderFriend 1 says%2C "Stylists A and B."%2CFriend 2 says%2C "Stylist E."%2CFriend 3 says%2C "Stylists D and E."
1534847892,1df11643a401064f97381706c452baad,Form,10,0,test,NULL,hair_A_chosen,no
1534847892,1df11643a401064f97381706c452baad,Form,10,0,test,NULL,hair_B_chosen,yes
1534847892,1df11643a401064f97381706c452baad,Form,10,0,test,NULL,hair_C_chosen,no
1534847892,1df11643a401064f97381706c452baad,Form,10,0,test,NULL,no_one_chosen,no
1534847892,1df11643a401064f97381706c452baad,Form,10,0,test,NULL,_REACTION_TIME_,4028
1534847892,1df11643a401064f97381706c452baad,Form,12,0,test,NULL,answers_reported,placeholderRoommate 1 says%2C "Stall A."%2CRoommate 2 says%2C "Stalls D and E."%2CRoommate 3 says%2C "Stall F."
1534847892,1df11643a401064f97381706c452baad,Form,12,0,test,NULL,florist_A_chosen,no
1534847892,1df11643a401064f97381706c452baad,Form,12,0,test,NULL,florist_B_chosen,yes
1534847892,1df11643a401064f97381706c452baad,Form,12,0,test,NULL,florist_C_chosen,no
1534847892,1df11643a401064f97381706c452baad,Form,12,0,test,NULL,no_one_chosen,no
1534847892,1df11643a401064f97381706c452baad,Form,12,0,test,NULL,_REACTION_TIME_,2209
1534847892,1df11643a401064f97381706c452baad,Form,24,0,nst,NULL,NST_3a_chosen,no
1534847892,1df11643a401064f97381706c452baad,Form,24,0,nst,NULL,NST_3b_chosen,yes
1534847892,1df11643a401064f97381706c452baad,Form,24,0,nst,NULL,NST_3c_chosen,no
1534847892,1df11643a401064f97381706c452baad,Form,24,0,nst,NULL,NST_3d_chosen,no
1534847892,1df11643a401064f97381706c452baad,Form,24,0,nst,NULL,NST_3e_chosen,no
1534847892,1df11643a401064f97381706c452baad,Form,24,0,nst,NULL,_REACTION_TIME_,3891
1534847892,1df11643a401064f97381706c452baad,Form,16,0,control,NULL,when_A_chosen,yes
1534847892,1df11643a401064f97381706c452baad,Form,16,0,control,NULL,when_B_chosen,no
1534847892,1df11643a401064f97381706c452baad,Form,16,0,control,NULL,when_C_chosen,no
1534847892,1df11643a401064f97381706c452baad,Form,16,0,control,NULL,none_chosen,no
1534847892,1df11643a401064f97381706c452baad,Form,16,0,control,NULL,_REACTION_TIME_,4421
1534847892,1df11643a401064f97381706c452baad,Form,19,0,ginz,NULL,ginzwhere_largegrain_y_chosen,yes
1534847892,1df11643a401064f97381706c452baad,Form,19,0,ginz,NULL,ginzwhere_largegrain_n_chosen,no
1534847892,1df11643a401064f97381706c452baad,Form,19,0,ginz,NULL,_REACTION_TIME_,9952
1534847892,1df11643a401064f97381706c452baad,Form,13,0,test,NULL,answers_reported,placeholderRoommate 1 says%2C "Cafe E."%2CRoommate 2 says%2C "Cafes D and E."%2CRoommate 3 says%2C "Cafes A and B."
1534847892,1df11643a401064f97381706c452baad,Form,13,0,test,NULL,coffee_A_chosen,yes
1534847892,1df11643a401064f97381706c452baad,Form,13,0,test,NULL,coffee_B_chosen,no
1534847892,1df11643a401064f97381706c452baad,Form,13,0,test,NULL,coffee_C_chosen,no
1534847892,1df11643a401064f97381706c452baad,Form,13,0,test,NULL,no_one_chosen,no
1534847892,1df11643a401064f97381706c452baad,Form,13,0,test,NULL,_REACTION_TIME_,4430
1534847892,1df11643a401064f97381706c452baad,Form,22,0,nst,NULL,NST_1a_chosen,no
1534847892,1df11643a401064f97381706c452baad,Form,22,0,nst,NULL,NST_1b_chosen,yes
1534847892,1df11643a401064f97381706c452baad,Form,22,0,nst,NULL,NST_1c_chosen,no
1534847892,1df11643a401064f97381706c452baad,Form,22,0,nst,NULL,NST_1d_chosen,no
1534847892,1df11643a401064f97381706c452baad,Form,22,0,nst,NULL,_REACTION_TIME_,8322
1534847892,1df11643a401064f97381706c452baad,Form,21,0,ginz,NULL,ginzwhere_smallgrain_y_chosen,yes
1534847892,1df11643a401064f97381706c452baad,Form,21,0,ginz,NULL,ginzwhere_smallgrain_n_chosen,no
1534847892,1df11643a401064f97381706c452baad,Form,21,0,ginz,NULL,_REACTION_TIME_,6513
1534847892,1df11643a401064f97381706c452baad,Form,14,0,control,NULL,why_A_chosen,no
1534847892,1df11643a401064f97381706c452baad,Form,14,0,control,NULL,why_B_chosen,yes
1534847892,1df11643a401064f97381706c452baad,Form,14,0,control,NULL,why_C_chosen,no
1534847892,1df11643a401064f97381706c452baad,Form,14,0,control,NULL,none_chosen,no
1534847892,1df11643a401064f97381706c452baad,Form,14,0,control,NULL,_REACTION_TIME_,2267
1534847892,1df11643a401064f97381706c452baad,Form,6,0,exit_quest,NULL,know_conditons,good
1534847892,1df11643a401064f97381706c452baad,Form,6,0,exit_quest,NULL,difficult,no
1534847892,1df11643a401064f97381706c452baad,Form,6,0,exit_quest,NULL,anything_else,very good
1534847892,1df11643a401064f97381706c452baad,Form,6,0,exit_quest,NULL,dummy_checkbox_,yes
1534847892,1df11643a401064f97381706c452baad,Form,6,0,exit_quest,NULL,_REACTION_TIME_,87152
#
# Results on Tuesday August 21 2018 10:38:44 UTC.
# USER AGENT: Mozilla/5.0 (Windows NT 10.0; Win64; x64) AppleWebKit/537.36 (KHTML, like Gecko) Chrome/68.0.3440.106 Safari/537.36
# Design number was non-random = 1
#
# Columns below this comment are as follows:
# 1. Time results were received.
# 2. MD5 hash of participant's IP address.
# 3. Controller name.
# 4. Item number.
# 5. Element number.
# 6. Type.
# 7. Group.
# 8. Field name.
# 9. Field value.
1534847924,e714b3b9047a2a095bf72193401c8ad9,Form,2,0,consent,NULL,subject_id,A1WKF2VH7TV0H2
1534847924,e714b3b9047a2a095bf72193401c8ad9,Form,2,0,consent,NULL,native_lang,English
1534847924,e714b3b9047a2a095bf72193401c8ad9,Form,2,0,consent,NULL,age,22
1534847924,e714b3b9047a2a095bf72193401c8ad9,Form,2,0,consent,NULL,consent_checkbox_,yes
1534847924,e714b3b9047a2a095bf72193401c8ad9,Form,2,0,consent,NULL,dummy_checkbox_,yes
1534847924,e714b3b9047a2a095bf72193401c8ad9,Form,2,0,consent,NULL,sex,female
1534847924,e714b3b9047a2a095bf72193401c8ad9,Form,2,0,consent,NULL,_REACTION_TIME_,12128
1534847924,e714b3b9047a2a095bf72193401c8ad9,Form,1,0,instructions,NULL,dummy_checkbox_,yes
1534847924,e714b3b9047a2a095bf72193401c8ad9,Form,1,0,instructions,NULL,_REACTION_TIME_,1236
1534847924,e714b3b9047a2a095bf72193401c8ad9,Form,4,0,train,NULL,train_m_A_chosen,no
1534847924,e714b3b9047a2a095bf72193401c8ad9,Form,4,0,train,NULL,train_m_B_chosen,no
1534847924,e714b3b9047a2a095bf72193401c8ad9,Form,4,0,train,NULL,train_m_C_chosen,yes
1534847924,e714b3b9047a2a095bf72193401c8ad9,Form,4,0,train,NULL,none_chosen,no
1534847924,e714b3b9047a2a095bf72193401c8ad9,Form,4,0,train,NULL,_REACTION_TIME_,12421
1534847924,e714b3b9047a2a095bf72193401c8ad9,Form,3,0,train,NULL,train_f_A_chosen,no
1534847924,e714b3b9047a2a095bf72193401c8ad9,Form,3,0,train,NULL,train_f_B_chosen,no
1534847924,e714b3b9047a2a095bf72193401c8ad9,Form,3,0,train,NULL,train_f_C_chosen,no
1534847924,e714b3b9047a2a095bf72193401c8ad9,Form,3,0,train,NULL,none_chosen,yes
1534847924,e714b3b9047a2a095bf72193401c8ad9,Form,3,0,train,NULL,_REACTION_TIME_,14637
1534847924,e714b3b9047a2a095bf72193401c8ad9,Form,5,0,train_end,NULL,dummy_checkbox_,yes
1534847924,e714b3b9047a2a095bf72193401c8ad9,Form,5,0,train_end,NULL,_REACTION_TIME_,1544
1534847924,e714b3b9047a2a095bf72193401c8ad9,Form,11,0,test,NULL,answers_reported,placeholderCoworker 1 says%2C "Dentists D and E."%2CCoworker 2 says%2C "Dentist A."%2CCoworker 3 says%2C "Dentists A%2C B%2C C%2C D and E."
1534847924,e714b3b9047a2a095bf72193401c8ad9,Form,11,0,test,NULL,dentist_A_chosen,yes
1534847924,e714b3b9047a2a095bf72193401c8ad9,Form,11,0,test,NULL,dentist_B_chosen,yes
1534847924,e714b3b9047a2a095bf72193401c8ad9,Form,11,0,test,NULL,dentist_C_chosen,yes
1534847924,e714b3b9047a2a095bf72193401c8ad9,Form,11,0,test,NULL,no_one_chosen,no
1534847924,e714b3b9047a2a095bf72193401c8ad9,Form,11,0,test,NULL,_REACTION_TIME_,13399
1534847924,e714b3b9047a2a095bf72193401c8ad9,Form,18,0,ginz,NULL,ginzwhere_largegrain_y_chosen,yes
1534847924,e714b3b9047a2a095bf72193401c8ad9,Form,18,0,ginz,NULL,ginzwhere_largegrain_n_chosen,no
1534847924,e714b3b9047a2a095bf72193401c8ad9,Form,18,0,ginz,NULL,_REACTION_TIME_,5205
1534847924,e714b3b9047a2a095bf72193401c8ad9,Form,23,0,nst,NULL,NST_2a_chosen,yes
1534847924,e714b3b9047a2a095bf72193401c8ad9,Form,23,0,nst,NULL,NST_2b_chosen,yes
1534847924,e714b3b9047a2a095bf72193401c8ad9,Form,23,0,nst,NULL,NST_2c_chosen,no
1534847924,e714b3b9047a2a095bf72193401c8ad9,Form,23,0,nst,NULL,NST_2d_chosen,no
1534847924,e714b3b9047a2a095bf72193401c8ad9,Form,23,0,nst,NULL,NST_2e_chosen,no
1534847924,e714b3b9047a2a095bf72193401c8ad9,Form,23,0,nst,NULL,_REACTION_TIME_,9239
1534847924,e714b3b9047a2a095bf72193401c8ad9,Form,8,0,test,NULL,answers_reported,placeholderFriend 1 says%2C "Store A."%2CFriend 2 says%2C "Store E."%2CFriend 3 says%2C "Store F."
1534847924,e714b3b9047a2a095bf72193401c8ad9,Form,8,0,test,NULL,shoes_A_chosen,yes
1534847924,e714b3b9047a2a095bf72193401c8ad9,Form,8,0,test,NULL,shoes_B_chosen,yes
1534847924,e714b3b9047a2a095bf72193401c8ad9,Form,8,0,test,NULL,shoes_C_chosen,yes
1534847924,e714b3b9047a2a095bf72193401c8ad9,Form,8,0,test,NULL,no_one_chosen,no
1534847924,e714b3b9047a2a095bf72193401c8ad9,Form,8,0,test,NULL,_REACTION_TIME_,7786
1534847924,e714b3b9047a2a095bf72193401c8ad9,Form,17,0,control,NULL,how_guest_A_chosen,yes
1534847924,e714b3b9047a2a095bf72193401c8ad9,Form,17,0,control,NULL,how_guest_B_chosen,yes
1534847924,e714b3b9047a2a095bf72193401c8ad9,Form,17,0,control,NULL,how_guest_C_chosen,yes
1534847924,e714b3b9047a2a095bf72193401c8ad9,Form,17,0,control,NULL,none_chosen,no
1534847924,e714b3b9047a2a095bf72193401c8ad9,Form,17,0,control,NULL,_REACTION_TIME_,16051
1534847924,e714b3b9047a2a095bf72193401c8ad9,Form,21,0,ginz,NULL,ginzwhere_smallgrain_y_chosen,yes
1534847924,e714b3b9047a2a095bf72193401c8ad9,Form,21,0,ginz,NULL,ginzwhere_smallgrain_n_chosen,no
1534847924,e714b3b9047a2a095bf72193401c8ad9,Form,21,0,ginz,NULL,_REACTION_TIME_,4787
1534847924,e714b3b9047a2a095bf72193401c8ad9,Form,24,0,nst,NULL,NST_3a_chosen,yes
1534847924,e714b3b9047a2a095bf72193401c8ad9,Form,24,0,nst,NULL,NST_3b_chosen,no
1534847924,e714b3b9047a2a095bf72193401c8ad9,Form,24,0,nst,NULL,NST_3c_chosen,no
1534847924,e714b3b9047a2a095bf72193401c8ad9,Form,24,0,nst,NULL,NST_3d_chosen,yes
1534847924,e714b3b9047a2a095bf72193401c8ad9,Form,24,0,nst,NULL,NST_3e_chosen,no
1534847924,e714b3b9047a2a095bf72193401c8ad9,Form,24,0,nst,NULL,_REACTION_TIME_,9556
1534847924,e714b3b9047a2a095bf72193401c8ad9,Form,12,0,test,NULL,answers_reported,placeholderRoommate 1 says%2C "Stalls D and E."%2CRoommate 2 says%2C "Stall A."%2CRoommate 3 says%2C "Stalls A and B."
1534847924,e714b3b9047a2a095bf72193401c8ad9,Form,12,0,test,NULL,florist_A_chosen,no
1534847924,e714b3b9047a2a095bf72193401c8ad9,Form,12,0,test,NULL,florist_B_chosen,yes
1534847924,e714b3b9047a2a095bf72193401c8ad9,Form,12,0,test,NULL,florist_C_chosen,yes
1534847924,e714b3b9047a2a095bf72193401c8ad9,Form,12,0,test,NULL,no_one_chosen,no
1534847924,e714b3b9047a2a095bf72193401c8ad9,Form,12,0,test,NULL,_REACTION_TIME_,16402
1534847924,e714b3b9047a2a095bf72193401c8ad9,Form,13,0,test,NULL,answers_reported,placeholderRoommate 1 says%2C "Cafe F."%2CRoommate 2 says%2C "Cafes A and B."%2CRoommate 3 says%2C "Cafe E."
1534847924,e714b3b9047a2a095bf72193401c8ad9,Form,13,0,test,NULL,coffee_A_chosen,no
1534847924,e714b3b9047a2a095bf72193401c8ad9,Form,13,0,test,NULL,coffee_B_chosen,yes
1534847924,e714b3b9047a2a095bf72193401c8ad9,Form,13,0,test,NULL,coffee_C_chosen,no
1534847924,e714b3b9047a2a095bf72193401c8ad9,Form,13,0,test,NULL,no_one_chosen,no
1534847924,e714b3b9047a2a095bf72193401c8ad9,Form,13,0,test,NULL,_REACTION_TIME_,29700
1534847924,e714b3b9047a2a095bf72193401c8ad9,Form,14,0,control,NULL,why_A_chosen,yes
1534847924,e714b3b9047a2a095bf72193401c8ad9,Form,14,0,control,NULL,why_B_chosen,yes
1534847924,e714b3b9047a2a095bf72193401c8ad9,Form,14,0,control,NULL,why_C_chosen,no
1534847924,e714b3b9047a2a095bf72193401c8ad9,Form,14,0,control,NULL,none_chosen,no
1534847924,e714b3b9047a2a095bf72193401c8ad9,Form,14,0,control,NULL,_REACTION_TIME_,5321
1534847924,e714b3b9047a2a095bf72193401c8ad9,Form,19,0,ginz,NULL,ginzwhere_largegrain_y_chosen,yes
1534847924,e714b3b9047a2a095bf72193401c8ad9,Form,19,0,ginz,NULL,ginzwhere_largegrain_n_chosen,no
1534847924,e714b3b9047a2a095bf72193401c8ad9,Form,19,0,ginz,NULL,_REACTION_TIME_,2695
1534847924,e714b3b9047a2a095bf72193401c8ad9,Form,25,0,nst,NULL,NST_4a_chosen,no
1534847924,e714b3b9047a2a095bf72193401c8ad9,Form,25,0,nst,NULL,NST_4b_chosen,yes
1534847924,e714b3b9047a2a095bf72193401c8ad9,Form,25,0,nst,NULL,_REACTION_TIME_,3950
1534847924,e714b3b9047a2a095bf72193401c8ad9,Form,10,0,test,NULL,answers_reported,placeholderFriend 1 says%2C "Stylists D and E."%2CFriend 2 says%2C "Stylists A and B."%2CFriend 3 says%2C "Stylist A."
1534847924,e714b3b9047a2a095bf72193401c8ad9,Form,10,0,test,NULL,hair_A_chosen,no
1534847924,e714b3b9047a2a095bf72193401c8ad9,Form,10,0,test,NULL,hair_B_chosen,yes
1534847924,e714b3b9047a2a095bf72193401c8ad9,Form,10,0,test,NULL,hair_C_chosen,yes
1534847924,e714b3b9047a2a095bf72193401c8ad9,Form,10,0,test,NULL,no_one_chosen,no
1534847924,e714b3b9047a2a095bf72193401c8ad9,Form,10,0,test,NULL,_REACTION_TIME_,9980
1534847924,e714b3b9047a2a095bf72193401c8ad9,Form,15,0,control,NULL,what_A_chosen,yes
1534847924,e714b3b9047a2a095bf72193401c8ad9,Form,15,0,control,NULL,what_B_chosen,no
1534847924,e714b3b9047a2a095bf72193401c8ad9,Form,15,0,control,NULL,what_C_chosen,no
1534847924,e714b3b9047a2a095bf72193401c8ad9,Form,15,0,control,NULL,none_chosen,no
1534847924,e714b3b9047a2a095bf72193401c8ad9,Form,15,0,control,NULL,_REACTION_TIME_,10001
1534847924,e714b3b9047a2a095bf72193401c8ad9,Form,9,0,test,NULL,answers_reported,placeholderFriend 1 says%2C "Bookstores D and E."%2CFriend 2 says%2C "Bookstore E."%2CFriend 3 says%2C "Bookstore A."
1534847924,e714b3b9047a2a095bf72193401c8ad9,Form,9,0,test,NULL,books_A_chosen,no
1534847924,e714b3b9047a2a095bf72193401c8ad9,Form,9,0,test,NULL,books_B_chosen,no
1534847924,e714b3b9047a2a095bf72193401c8ad9,Form,9,0,test,NULL,books_C_chosen,yes
1534847924,e714b3b9047a2a095bf72193401c8ad9,Form,9,0,test,NULL,no_one_chosen,no
1534847924,e714b3b9047a2a095bf72193401c8ad9,Form,9,0,test,NULL,_REACTION_TIME_,2810
1534847924,e714b3b9047a2a095bf72193401c8ad9,Form,20,0,ginz,NULL,ginzwho_smallgrain_y_chosen,yes
1534847924,e714b3b9047a2a095bf72193401c8ad9,Form,20,0,ginz,NULL,ginzwho_smallgrain_n_chosen,no
1534847924,e714b3b9047a2a095bf72193401c8ad9,Form,20,0,ginz,NULL,_REACTION_TIME_,1524
1534847924,e714b3b9047a2a095bf72193401c8ad9,Form,22,0,nst,NULL,NST_1a_chosen,yes
1534847924,e714b3b9047a2a095bf72193401c8ad9,Form,22,0,nst,NULL,NST_1b_chosen,no
1534847924,e714b3b9047a2a095bf72193401c8ad9,Form,22,0,nst,NULL,NST_1c_chosen,no
1534847924,e714b3b9047a2a095bf72193401c8ad9,Form,22,0,nst,NULL,NST_1d_chosen,yes
1534847924,e714b3b9047a2a095bf72193401c8ad9,Form,22,0,nst,NULL,_REACTION_TIME_,4179
1534847924,e714b3b9047a2a095bf72193401c8ad9,Form,16,0,control,NULL,when_A_chosen,no
1534847924,e714b3b9047a2a095bf72193401c8ad9,Form,16,0,control,NULL,when_B_chosen,no
1534847924,e714b3b9047a2a095bf72193401c8ad9,Form,16,0,control,NULL,when_C_chosen,no
1534847924,e714b3b9047a2a095bf72193401c8ad9,Form,16,0,control,NULL,none_chosen,yes
1534847924,e714b3b9047a2a095bf72193401c8ad9,Form,16,0,control,NULL,_REACTION_TIME_,8993
1534847924,e714b3b9047a2a095bf72193401c8ad9,Form,6,0,exit_quest,NULL,know_conditons,Yes%2C it's 2 different questions.
1534847924,e714b3b9047a2a095bf72193401c8ad9,Form,6,0,exit_quest,NULL,difficult,No%2C because it's not hard.
1534847924,e714b3b9047a2a095bf72193401c8ad9,Form,6,0,exit_quest,NULL,anything_else,No.
1534847924,e714b3b9047a2a095bf72193401c8ad9,Form,6,0,exit_quest,NULL,dummy_checkbox_,yes
1534847924,e714b3b9047a2a095bf72193401c8ad9,Form,6,0,exit_quest,NULL,_REACTION_TIME_,20332
#
# Results on Tuesday August 21 2018 10:39:24 UTC.
# USER AGENT: Mozilla/5.0 (Windows NT 6.3; Win64; x64) AppleWebKit/537.36 (KHTML, like Gecko) Chrome/68.0.3440.84 Safari/537.36
# Design number was non-random = 1
#
# Columns below this comment are as follows:
# 1. Time results were received.
# 2. MD5 hash of participant's IP address.
# 3. Controller name.
# 4. Item number.
# 5. Element number.
# 6. Type.
# 7. Group.
# 8. Field name.
# 9. Field value.
1534847964,81082b8a995bec2fc5592abe6ed2369a,Form,2,0,consent,NULL,subject_id,ADUACF4TW5833
1534847964,81082b8a995bec2fc5592abe6ed2369a,Form,2,0,consent,NULL,native_lang,ENGLISH
1534847964,81082b8a995bec2fc5592abe6ed2369a,Form,2,0,consent,NULL,age,28
1534847964,81082b8a995bec2fc5592abe6ed2369a,Form,2,0,consent,NULL,consent_checkbox_,yes
1534847964,81082b8a995bec2fc5592abe6ed2369a,Form,2,0,consent,NULL,dummy_checkbox_,yes
1534847964,81082b8a995bec2fc5592abe6ed2369a,Form,2,0,consent,NULL,sex,male
1534847964,81082b8a995bec2fc5592abe6ed2369a,Form,2,0,consent,NULL,_REACTION_TIME_,38642
1534847964,81082b8a995bec2fc5592abe6ed2369a,Form,1,0,instructions,NULL,dummy_checkbox_,yes
1534847964,81082b8a995bec2fc5592abe6ed2369a,Form,1,0,instructions,NULL,_REACTION_TIME_,2131
1534847964,81082b8a995bec2fc5592abe6ed2369a,Form,4,0,train,NULL,train_m_A_chosen,yes
1534847964,81082b8a995bec2fc5592abe6ed2369a,Form,4,0,train,NULL,train_m_B_chosen,no
1534847964,81082b8a995bec2fc5592abe6ed2369a,Form,4,0,train,NULL,train_m_C_chosen,no
1534847964,81082b8a995bec2fc5592abe6ed2369a,Form,4,0,train,NULL,none_chosen,no
1534847964,81082b8a995bec2fc5592abe6ed2369a,Form,4,0,train,NULL,_REACTION_TIME_,7892
1534847964,81082b8a995bec2fc5592abe6ed2369a,Form,3,0,train,NULL,train_f_A_chosen,yes
1534847964,81082b8a995bec2fc5592abe6ed2369a,Form,3,0,train,NULL,train_f_B_chosen,no
1534847964,81082b8a995bec2fc5592abe6ed2369a,Form,3,0,train,NULL,train_f_C_chosen,no
1534847964,81082b8a995bec2fc5592abe6ed2369a,Form,3,0,train,NULL,none_chosen,no
1534847964,81082b8a995bec2fc5592abe6ed2369a,Form,3,0,train,NULL,_REACTION_TIME_,4194
1534847964,81082b8a995bec2fc5592abe6ed2369a,Form,5,0,train_end,NULL,dummy_checkbox_,yes
1534847964,81082b8a995bec2fc5592abe6ed2369a,Form,5,0,train_end,NULL,_REACTION_TIME_,1775
1534847964,81082b8a995bec2fc5592abe6ed2369a,Form,11,0,test,NULL,answers_reported,placeholderCoworker 1 says%2C "Dentists A%2C B%2C C%2C D and E."%2CCoworker 2 says%2C "Dentists D and E."%2CCoworker 3 says%2C "Dentist A."
1534847964,81082b8a995bec2fc5592abe6ed2369a,Form,11,0,test,NULL,dentist_A_chosen,no
1534847964,81082b8a995bec2fc5592abe6ed2369a,Form,11,0,test,NULL,dentist_B_chosen,no
1534847964,81082b8a995bec2fc5592abe6ed2369a,Form,11,0,test,NULL,dentist_C_chosen,yes
1534847964,81082b8a995bec2fc5592abe6ed2369a,Form,11,0,test,NULL,no_one_chosen,no
1534847964,81082b8a995bec2fc5592abe6ed2369a,Form,11,0,test,NULL,_REACTION_TIME_,5956
1534847964,81082b8a995bec2fc5592abe6ed2369a,Form,19,0,ginz,NULL,ginzwhere_largegrain_y_chosen,no
1534847964,81082b8a995bec2fc5592abe6ed2369a,Form,19,0,ginz,NULL,ginzwhere_largegrain_n_chosen,no
1534847964,81082b8a995bec2fc5592abe6ed2369a,Form,19,0,ginz,NULL,_REACTION_TIME_,2314
1534847964,81082b8a995bec2fc5592abe6ed2369a,Form,13,0,test,NULL,answers_reported,placeholderRoommate 1 says%2C "Cafes D and E."%2CRoommate 2 says%2C "Cafe E."%2CRoommate 3 says%2C "Cafes A and B."
1534847964,81082b8a995bec2fc5592abe6ed2369a,Form,13,0,test,NULL,coffee_A_chosen,yes
1534847964,81082b8a995bec2fc5592abe6ed2369a,Form,13,0,test,NULL,coffee_B_chosen,no
1534847964,81082b8a995bec2fc5592abe6ed2369a,Form,13,0,test,NULL,coffee_C_chosen,no
1534847964,81082b8a995bec2fc5592abe6ed2369a,Form,13,0,test,NULL,no_one_chosen,no
1534847964,81082b8a995bec2fc5592abe6ed2369a,Form,13,0,test,NULL,_REACTION_TIME_,3661
1534847964,81082b8a995bec2fc5592abe6ed2369a,Form,14,0,control,NULL,why_A_chosen,no
1534847964,81082b8a995bec2fc5592abe6ed2369a,Form,14,0,control,NULL,why_B_chosen,no
1534847964,81082b8a995bec2fc5592abe6ed2369a,Form,14,0,control,NULL,why_C_chosen,no
1534847964,81082b8a995bec2fc5592abe6ed2369a,Form,14,0,control,NULL,none_chosen,no
1534847964,81082b8a995bec2fc5592abe6ed2369a,Form,14,0,control,NULL,_REACTION_TIME_,2951
1534847964,81082b8a995bec2fc5592abe6ed2369a,Form,22,0,nst,NULL,NST_1a_chosen,yes
1534847964,81082b8a995bec2fc5592abe6ed2369a,Form,22,0,nst,NULL,NST_1b_chosen,no
1534847964,81082b8a995bec2fc5592abe6ed2369a,Form,22,0,nst,NULL,NST_1c_chosen,no
1534847964,81082b8a995bec2fc5592abe6ed2369a,Form,22,0,nst,NULL,NST_1d_chosen,no
1534847964,81082b8a995bec2fc5592abe6ed2369a,Form,22,0,nst,NULL,_REACTION_TIME_,3915
1534847964,81082b8a995bec2fc5592abe6ed2369a,Form,18,0,ginz,NULL,ginzwhere_largegrain_y_chosen,yes
1534847964,81082b8a995bec2fc5592abe6ed2369a,Form,18,0,ginz,NULL,ginzwhere_largegrain_n_chosen,no
1534847964,81082b8a995bec2fc5592abe6ed2369a,Form,18,0,ginz,NULL,_REACTION_TIME_,3634
1534847964,81082b8a995bec2fc5592abe6ed2369a,Form,8,0,test,NULL,answers_reported,placeholderFriend 1 says%2C "Store A."%2CFriend 2 says%2C "Store F."%2CFriend 3 says%2C "Store E."
1534847964,81082b8a995bec2fc5592abe6ed2369a,Form,8,0,test,NULL,shoes_A_chosen,yes
1534847964,81082b8a995bec2fc5592abe6ed2369a,Form,8,0,test,NULL,shoes_B_chosen,no
1534847964,81082b8a995bec2fc5592abe6ed2369a,Form,8,0,test,NULL,shoes_C_chosen,no
1534847964,81082b8a995bec2fc5592abe6ed2369a,Form,8,0,test,NULL,no_one_chosen,no
1534847964,81082b8a995bec2fc5592abe6ed2369a,Form,8,0,test,NULL,_REACTION_TIME_,8286
1534847964,81082b8a995bec2fc5592abe6ed2369a,Form,23,0,nst,NULL,NST_2a_chosen,yes
1534847964,81082b8a995bec2fc5592abe6ed2369a,Form,23,0,nst,NULL,NST_2b_chosen,no
1534847964,81082b8a995bec2fc5592abe6ed2369a,Form,23,0,nst,NULL,NST_2c_chosen,no
1534847964,81082b8a995bec2fc5592abe6ed2369a,Form,23,0,nst,NULL,NST_2d_chosen,no
1534847964,81082b8a995bec2fc5592abe6ed2369a,Form,23,0,nst,NULL,NST_2e_chosen,no
1534847964,81082b8a995bec2fc5592abe6ed2369a,Form,23,0,nst,NULL,_REACTION_TIME_,3373
1534847964,81082b8a995bec2fc5592abe6ed2369a,Form,17,0,control,NULL,how_guest_A_chosen,yes
1534847964,81082b8a995bec2fc5592abe6ed2369a,Form,17,0,control,NULL,how_guest_B_chosen,no
1534847964,81082b8a995bec2fc5592abe6ed2369a,Form,17,0,control,NULL,how_guest_C_chosen,no
1534847964,81082b8a995bec2fc5592abe6ed2369a,Form,17,0,control,NULL,none_chosen,no
1534847964,81082b8a995bec2fc5592abe6ed2369a,Form,17,0,control,NULL,_REACTION_TIME_,2520
1534847964,81082b8a995bec2fc5592abe6ed2369a,Form,9,0,test,NULL,answers_reported,placeholderFriend 1 says%2C "Bookstores A%2C B%2C C%2C D and E."%2CFriend 2 says%2C "Bookstore A."%2CFriend 3 says%2C "Bookstores A and B."
1534847964,81082b8a995bec2fc5592abe6ed2369a,Form,9,0,test,NULL,books_A_chosen,yes
1534847964,81082b8a995bec2fc5592abe6ed2369a,Form,9,0,test,NULL,books_B_chosen,no
1534847964,81082b8a995bec2fc5592abe6ed2369a,Form,9,0,test,NULL,books_C_chosen,no
1534847964,81082b8a995bec2fc5592abe6ed2369a,Form,9,0,test,NULL,no_one_chosen,no
1534847964,81082b8a995bec2fc5592abe6ed2369a,Form,9,0,test,NULL,_REACTION_TIME_,4266
1534847964,81082b8a995bec2fc5592abe6ed2369a,Form,21,0,ginz,NULL,ginzwhere_smallgrain_y_chosen,yes
1534847964,81082b8a995bec2fc5592abe6ed2369a,Form,21,0,ginz,NULL,ginzwhere_smallgrain_n_chosen,no
1534847964,81082b8a995bec2fc5592abe6ed2369a,Form,21,0,ginz,NULL,_REACTION_TIME_,2334
1534847964,81082b8a995bec2fc5592abe6ed2369a,Form,10,0,test,NULL,answers_reported,placeholderFriend 1 says%2C "Stylists D and E."%2CFriend 2 says%2C "Stylists A%2C B%2C C%2C D and E."%2CFriend 3 says%2C "Stylist A."
1534847964,81082b8a995bec2fc5592abe6ed2369a,Form,10,0,test,NULL,hair_A_chosen,yes
1534847964,81082b8a995bec2fc5592abe6ed2369a,Form,10,0,test,NULL,hair_B_chosen,no
1534847964,81082b8a995bec2fc5592abe6ed2369a,Form,10,0,test,NULL,hair_C_chosen,no
1534847964,81082b8a995bec2fc5592abe6ed2369a,Form,10,0,test,NULL,no_one_chosen,no
1534847964,81082b8a995bec2fc5592abe6ed2369a,Form,10,0,test,NULL,_REACTION_TIME_,3726
1534847964,81082b8a995bec2fc5592abe6ed2369a,Form,15,0,control,NULL,what_A_chosen,yes
1534847964,81082b8a995bec2fc5592abe6ed2369a,Form,15,0,control,NULL,what_B_chosen,no
1534847964,81082b8a995bec2fc5592abe6ed2369a,Form,15,0,control,NULL,what_C_chosen,no
1534847964,81082b8a995bec2fc5592abe6ed2369a,Form,15,0,control,NULL,none_chosen,no
1534847964,81082b8a995bec2fc5592abe6ed2369a,Form,15,0,control,NULL,_REACTION_TIME_,2968
1534847964,81082b8a995bec2fc5592abe6ed2369a,Form,25,0,nst,NULL,NST_4a_chosen,yes
1534847964,81082b8a995bec2fc5592abe6ed2369a,Form,25,0,nst,NULL,NST_4b_chosen,no
1534847964,81082b8a995bec2fc5592abe6ed2369a,Form,25,0,nst,NULL,_REACTION_TIME_,3159
1534847964,81082b8a995bec2fc5592abe6ed2369a,Form,12,0,test,NULL,answers_reported,placeholderRoommate 1 says%2C "Stalls D and E."%2CRoommate 2 says%2C "Stall E."%2CRoommate 3 says%2C "Stalls A%2C B%2C C%2C D and E."
1534847964,81082b8a995bec2fc5592abe6ed2369a,Form,12,0,test,NULL,florist_A_chosen,yes
1534847964,81082b8a995bec2fc5592abe6ed2369a,Form,12,0,test,NULL,florist_B_chosen,no
1534847964,81082b8a995bec2fc5592abe6ed2369a,Form,12,0,test,NULL,florist_C_chosen,no
1534847964,81082b8a995bec2fc5592abe6ed2369a,Form,12,0,test,NULL,no_one_chosen,no
1534847964,81082b8a995bec2fc5592abe6ed2369a,Form,12,0,test,NULL,_REACTION_TIME_,3738
1534847964,81082b8a995bec2fc5592abe6ed2369a,Form,20,0,ginz,NULL,ginzwho_smallgrain_y_chosen,yes
1534847964,81082b8a995bec2fc5592abe6ed2369a,Form,20,0,ginz,NULL,ginzwho_smallgrain_n_chosen,no
1534847964,81082b8a995bec2fc5592abe6ed2369a,Form,20,0,ginz,NULL,_REACTION_TIME_,3980
1534847964,81082b8a995bec2fc5592abe6ed2369a,Form,24,0,nst,NULL,NST_3a_chosen,yes
1534847964,81082b8a995bec2fc5592abe6ed2369a,Form,24,0,nst,NULL,NST_3b_chosen,no
1534847964,81082b8a995bec2fc5592abe6ed2369a,Form,24,0,nst,NULL,NST_3c_chosen,no
1534847964,81082b8a995bec2fc5592abe6ed2369a,Form,24,0,nst,NULL,NST_3d_chosen,no
1534847964,81082b8a995bec2fc5592abe6ed2369a,Form,24,0,nst,NULL,NST_3e_chosen,no
1534847964,81082b8a995bec2fc5592abe6ed2369a,Form,24,0,nst,NULL,_REACTION_TIME_,2256
1534847964,81082b8a995bec2fc5592abe6ed2369a,Form,16,0,control,NULL,when_A_chosen,yes
1534847964,81082b8a995bec2fc5592abe6ed2369a,Form,16,0,control,NULL,when_B_chosen,no
1534847964,81082b8a995bec2fc5592abe6ed2369a,Form,16,0,control,NULL,when_C_chosen,no
1534847964,81082b8a995bec2fc5592abe6ed2369a,Form,16,0,control,NULL,none_chosen,no
1534847964,81082b8a995bec2fc5592abe6ed2369a,Form,16,0,control,NULL,_REACTION_TIME_,2177
1534847964,81082b8a995bec2fc5592abe6ed2369a,Form,6,0,exit_quest,NULL,know_conditons,Best Sunday Brunch in Mumbai Menu%2C Photos
1534847964,81082b8a995bec2fc5592abe6ed2369a,Form,6,0,exit_quest,NULL,difficult,small bites are served on cocktail sticks.
1534847964,81082b8a995bec2fc5592abe6ed2369a,Form,6,0,exit_quest,NULL,anything_else,Here are the places to have brunch
1534847964,81082b8a995bec2fc5592abe6ed2369a,Form,6,0,exit_quest,NULL,dummy_checkbox_,yes
1534847964,81082b8a995bec2fc5592abe6ed2369a,Form,6,0,exit_quest,NULL,_REACTION_TIME_,116004
#
# Results on Tuesday August 21 2018 10:39:25 UTC.
# USER AGENT: Mozilla/5.0 (Windows NT 6.3; Win64; x64) AppleWebKit/537.36 (KHTML, like Gecko) Chrome/68.0.3440.106 Safari/537.36
# Design number was non-random = 1
#
# Columns below this comment are as follows:
# 1. Time results were received.
# 2. MD5 hash of participant's IP address.
# 3. Controller name.
# 4. Item number.
# 5. Element number.
# 6. Type.
# 7. Group.
# 8. Field name.
# 9. Field value.
1534847965,7f4a03dfa123ea71ae39791f0742de5e,Form,2,0,consent,NULL,subject_id,ABZ1LM3J8REE6
1534847965,7f4a03dfa123ea71ae39791f0742de5e,Form,2,0,consent,NULL,native_lang,english
1534847965,7f4a03dfa123ea71ae39791f0742de5e,Form,2,0,consent,NULL,age,58
1534847965,7f4a03dfa123ea71ae39791f0742de5e,Form,2,0,consent,NULL,consent_checkbox_,yes
1534847965,7f4a03dfa123ea71ae39791f0742de5e,Form,2,0,consent,NULL,dummy_checkbox_,yes
1534847965,7f4a03dfa123ea71ae39791f0742de5e,Form,2,0,consent,NULL,sex,male
1534847965,7f4a03dfa123ea71ae39791f0742de5e,Form,2,0,consent,NULL,_REACTION_TIME_,41002
1534847965,7f4a03dfa123ea71ae39791f0742de5e,Form,1,0,instructions,NULL,dummy_checkbox_,yes
1534847965,7f4a03dfa123ea71ae39791f0742de5e,Form,1,0,instructions,NULL,_REACTION_TIME_,9512
1534847965,7f4a03dfa123ea71ae39791f0742de5e,Form,3,0,train,NULL,train_f_A_chosen,yes
1534847965,7f4a03dfa123ea71ae39791f0742de5e,Form,3,0,train,NULL,train_f_B_chosen,no
1534847965,7f4a03dfa123ea71ae39791f0742de5e,Form,3,0,train,NULL,train_f_C_chosen,no
1534847965,7f4a03dfa123ea71ae39791f0742de5e,Form,3,0,train,NULL,none_chosen,no
1534847965,7f4a03dfa123ea71ae39791f0742de5e,Form,3,0,train,NULL,_REACTION_TIME_,14755
1534847965,7f4a03dfa123ea71ae39791f0742de5e,Form,4,0,train,NULL,train_m_A_chosen,yes
1534847965,7f4a03dfa123ea71ae39791f0742de5e,Form,4,0,train,NULL,train_m_B_chosen,no
1534847965,7f4a03dfa123ea71ae39791f0742de5e,Form,4,0,train,NULL,train_m_C_chosen,no
1534847965,7f4a03dfa123ea71ae39791f0742de5e,Form,4,0,train,NULL,none_chosen,no
1534847965,7f4a03dfa123ea71ae39791f0742de5e,Form,4,0,train,NULL,_REACTION_TIME_,15940
1534847965,7f4a03dfa123ea71ae39791f0742de5e,Form,5,0,train_end,NULL,dummy_checkbox_,yes
1534847965,7f4a03dfa123ea71ae39791f0742de5e,Form,5,0,train_end,NULL,_REACTION_TIME_,7504
1534847965,7f4a03dfa123ea71ae39791f0742de5e,Form,8,0,test,NULL,answers_reported,placeholderFriend 1 says%2C "Stores A%2C B%2C C%2C D and E."%2CFriend 2 says%2C "Store A."%2CFriend 3 says%2C "Store E."
1534847965,7f4a03dfa123ea71ae39791f0742de5e,Form,8,0,test,NULL,shoes_A_chosen,no
1534847965,7f4a03dfa123ea71ae39791f0742de5e,Form,8,0,test,NULL,shoes_B_chosen,yes
1534847965,7f4a03dfa123ea71ae39791f0742de5e,Form,8,0,test,NULL,shoes_C_chosen,no
1534847965,7f4a03dfa123ea71ae39791f0742de5e,Form,8,0,test,NULL,no_one_chosen,no
1534847965,7f4a03dfa123ea71ae39791f0742de5e,Form,8,0,test,NULL,_REACTION_TIME_,14414
1534847965,7f4a03dfa123ea71ae39791f0742de5e,Form,18,0,ginz,NULL,ginzwhere_largegrain_y_chosen,yes
1534847965,7f4a03dfa123ea71ae39791f0742de5e,Form,18,0,ginz,NULL,ginzwhere_largegrain_n_chosen,no
1534847965,7f4a03dfa123ea71ae39791f0742de5e,Form,18,0,ginz,NULL,_REACTION_TIME_,12943
1534847965,7f4a03dfa123ea71ae39791f0742de5e,Form,25,0,nst,NULL,NST_4a_chosen,no
1534847965,7f4a03dfa123ea71ae39791f0742de5e,Form,25,0,nst,NULL,NST_4b_chosen,yes
1534847965,7f4a03dfa123ea71ae39791f0742de5e,Form,25,0,nst,NULL,_REACTION_TIME_,11349
1534847965,7f4a03dfa123ea71ae39791f0742de5e,Form,14,0,control,NULL,why_A_chosen,yes
1534847965,7f4a03dfa123ea71ae39791f0742de5e,Form,14,0,control,NULL,why_B_chosen,yes
1534847965,7f4a03dfa123ea71ae39791f0742de5e,Form,14,0,control,NULL,why_C_chosen,yes
1534847965,7f4a03dfa123ea71ae39791f0742de5e,Form,14,0,control,NULL,none_chosen,yes
1534847965,7f4a03dfa123ea71ae39791f0742de5e,Form,14,0,control,NULL,_REACTION_TIME_,29365
1534847965,7f4a03dfa123ea71ae39791f0742de5e,Form,13,0,test,NULL,answers_reported,placeholderRoommate 1 says%2C "Cafes D and E."%2CRoommate 2 says%2C "Cafe A."%2CRoommate 3 says%2C "Cafe E."
1534847965,7f4a03dfa123ea71ae39791f0742de5e,Form,13,0,test,NULL,coffee_A_chosen,no
1534847965,7f4a03dfa123ea71ae39791f0742de5e,Form,13,0,test,NULL,coffee_B_chosen,no
1534847965,7f4a03dfa123ea71ae39791f0742de5e,Form,13,0,test,NULL,coffee_C_chosen,no
1534847965,7f4a03dfa123ea71ae39791f0742de5e,Form,13,0,test,NULL,no_one_chosen,no
1534847965,7f4a03dfa123ea71ae39791f0742de5e,Form,13,0,test,NULL,_REACTION_TIME_,9687
1534847965,7f4a03dfa123ea71ae39791f0742de5e,Form,21,0,ginz,NULL,ginzwhere_smallgrain_y_chosen,yes
1534847965,7f4a03dfa123ea71ae39791f0742de5e,Form,21,0,ginz,NULL,ginzwhere_smallgrain_n_chosen,no
1534847965,7f4a03dfa123ea71ae39791f0742de5e,Form,21,0,ginz,NULL,_REACTION_TIME_,6825
1534847965,7f4a03dfa123ea71ae39791f0742de5e,Form,24,0,nst,NULL,NST_3a_chosen,yes
1534847965,7f4a03dfa123ea71ae39791f0742de5e,Form,24,0,nst,NULL,NST_3b_chosen,no
1534847965,7f4a03dfa123ea71ae39791f0742de5e,Form,24,0,nst,NULL,NST_3c_chosen,no
1534847965,7f4a03dfa123ea71ae39791f0742de5e,Form,24,0,nst,NULL,NST_3d_chosen,no
1534847965,7f4a03dfa123ea71ae39791f0742de5e,Form,24,0,nst,NULL,NST_3e_chosen,no
1534847965,7f4a03dfa123ea71ae39791f0742de5e,Form,24,0,nst,NULL,_REACTION_TIME_,22614
1534847965,7f4a03dfa123ea71ae39791f0742de5e,Form,11,0,test,NULL,answers_reported,placeholderCoworker 1 says%2C "Dentists A and B."%2CCoworker 2 says%2C "Dentist E."%2CCoworker 3 says%2C "Dentists D and E."
1534847965,7f4a03dfa123ea71ae39791f0742de5e,Form,11,0,test,NULL,dentist_A_chosen,no
1534847965,7f4a03dfa123ea71ae39791f0742de5e,Form,11,0,test,NULL,dentist_B_chosen,no
1534847965,7f4a03dfa123ea71ae39791f0742de5e,Form,11,0,test,NULL,dentist_C_chosen,yes
1534847965,7f4a03dfa123ea71ae39791f0742de5e,Form,11,0,test,NULL,no_one_chosen,no
1534847965,7f4a03dfa123ea71ae39791f0742de5e,Form,11,0,test,NULL,_REACTION_TIME_,9434
1534847965,7f4a03dfa123ea71ae39791f0742de5e,Form,15,0,control,NULL,what_A_chosen,yes
1534847965,7f4a03dfa123ea71ae39791f0742de5e,Form,15,0,control,NULL,what_B_chosen,no
1534847965,7f4a03dfa123ea71ae39791f0742de5e,Form,15,0,control,NULL,what_C_chosen,no
1534847965,7f4a03dfa123ea71ae39791f0742de5e,Form,15,0,control,NULL,none_chosen,no
1534847965,7f4a03dfa123ea71ae39791f0742de5e,Form,15,0,control,NULL,_REACTION_TIME_,5580
1534847965,7f4a03dfa123ea71ae39791f0742de5e,Form,9,0,test,NULL,answers_reported,placeholderFriend 1 says%2C "Bookstores A and B."%2CFriend 2 says%2C "Bookstore E."%2CFriend 3 says%2C "Bookstore A."
1534847965,7f4a03dfa123ea71ae39791f0742de5e,Form,9,0,test,NULL,books_A_chosen,no
1534847965,7f4a03dfa123ea71ae39791f0742de5e,Form,9,0,test,NULL,books_B_chosen,yes
1534847965,7f4a03dfa123ea71ae39791f0742de5e,Form,9,0,test,NULL,books_C_chosen,no
1534847965,7f4a03dfa123ea71ae39791f0742de5e,Form,9,0,test,NULL,no_one_chosen,no
1534847965,7f4a03dfa123ea71ae39791f0742de5e,Form,9,0,test,NULL,_REACTION_TIME_,8792
1534847965,7f4a03dfa123ea71ae39791f0742de5e,Form,19,0,ginz,NULL,ginzwhere_largegrain_y_chosen,yes
1534847965,7f4a03dfa123ea71ae39791f0742de5e,Form,19,0,ginz,NULL,ginzwhere_largegrain_n_chosen,no
1534847965,7f4a03dfa123ea71ae39791f0742de5e,Form,19,0,ginz,NULL,_REACTION_TIME_,7332
1534847965,7f4a03dfa123ea71ae39791f0742de5e,Form,22,0,nst,NULL,NST_1a_chosen,no
1534847965,7f4a03dfa123ea71ae39791f0742de5e,Form,22,0,nst,NULL,NST_1b_chosen,no
1534847965,7f4a03dfa123ea71ae39791f0742de5e,Form,22,0,nst,NULL,NST_1c_chosen,no
1534847965,7f4a03dfa123ea71ae39791f0742de5e,Form,22,0,nst,NULL,NST_1d_chosen,yes
1534847965,7f4a03dfa123ea71ae39791f0742de5e,Form,22,0,nst,NULL,_REACTION_TIME_,13431
1534847965,7f4a03dfa123ea71ae39791f0742de5e,Form,17,0,control,NULL,how_guest_A_chosen,yes
1534847965,7f4a03dfa123ea71ae39791f0742de5e,Form,17,0,control,NULL,how_guest_B_chosen,yes
1534847965,7f4a03dfa123ea71ae39791f0742de5e,Form,17,0,control,NULL,how_guest_C_chosen,yes
1534847965,7f4a03dfa123ea71ae39791f0742de5e,Form,17,0,control,NULL,none_chosen,yes
1534847965,7f4a03dfa123ea71ae39791f0742de5e,Form,17,0,control,NULL,_REACTION_TIME_,12728
1534847965,7f4a03dfa123ea71ae39791f0742de5e,Form,10,0,test,NULL,answers_reported,placeholderFriend 1 says%2C "Stylist E."%2CFriend 2 says%2C "Stylists A and B."%2CFriend 3 says%2C "Stylists A%2C B%2C C%2C D and E."
1534847965,7f4a03dfa123ea71ae39791f0742de5e,Form,10,0,test,NULL,hair_A_chosen,yes
1534847965,7f4a03dfa123ea71ae39791f0742de5e,Form,10,0,test,NULL,hair_B_chosen,yes
1534847965,7f4a03dfa123ea71ae39791f0742de5e,Form,10,0,test,NULL,hair_C_chosen,yes
1534847965,7f4a03dfa123ea71ae39791f0742de5e,Form,10,0,test,NULL,no_one_chosen,no
1534847965,7f4a03dfa123ea71ae39791f0742de5e,Form,10,0,test,NULL,_REACTION_TIME_,11206
1534847965,7f4a03dfa123ea71ae39791f0742de5e,Form,12,0,test,NULL,answers_reported,placeholderRoommate 1 says%2C "Stall F."%2CRoommate 2 says%2C "Stalls A%2C B%2C C%2C D and E."%2CRoommate 3 says%2C "Stalls D and E."
1534847965,7f4a03dfa123ea71ae39791f0742de5e,Form,12,0,test,NULL,florist_A_chosen,yes
1534847965,7f4a03dfa123ea71ae39791f0742de5e,Form,12,0,test,NULL,florist_B_chosen,yes
1534847965,7f4a03dfa123ea71ae39791f0742de5e,Form,12,0,test,NULL,florist_C_chosen,yes
1534847965,7f4a03dfa123ea71ae39791f0742de5e,Form,12,0,test,NULL,no_one_chosen,no
1534847965,7f4a03dfa123ea71ae39791f0742de5e,Form,12,0,test,NULL,_REACTION_TIME_,9360
1534847965,7f4a03dfa123ea71ae39791f0742de5e,Form,20,0,ginz,NULL,ginzwho_smallgrain_y_chosen,yes
1534847965,7f4a03dfa123ea71ae39791f0742de5e,Form,20,0,ginz,NULL,ginzwho_smallgrain_n_chosen,no
1534847965,7f4a03dfa123ea71ae39791f0742de5e,Form,20,0,ginz,NULL,_REACTION_TIME_,4994
1534847965,7f4a03dfa123ea71ae39791f0742de5e,Form,23,0,nst,NULL,NST_2a_chosen,no
1534847965,7f4a03dfa123ea71ae39791f0742de5e,Form,23,0,nst,NULL,NST_2b_chosen,no
1534847965,7f4a03dfa123ea71ae39791f0742de5e,Form,23,0,nst,NULL,NST_2c_chosen,yes
1534847965,7f4a03dfa123ea71ae39791f0742de5e,Form,23,0,nst,NULL,NST_2d_chosen,no
1534847965,7f4a03dfa123ea71ae39791f0742de5e,Form,23,0,nst,NULL,NST_2e_chosen,no
1534847965,7f4a03dfa123ea71ae39791f0742de5e,Form,23,0,nst,NULL,_REACTION_TIME_,10974
1534847965,7f4a03dfa123ea71ae39791f0742de5e,Form,16,0,control,NULL,when_A_chosen,no
1534847965,7f4a03dfa123ea71ae39791f0742de5e,Form,16,0,control,NULL,when_B_chosen,yes
1534847965,7f4a03dfa123ea71ae39791f0742de5e,Form,16,0,control,NULL,when_C_chosen,no
1534847965,7f4a03dfa123ea71ae39791f0742de5e,Form,16,0,control,NULL,none_chosen,no
1534847965,7f4a03dfa123ea71ae39791f0742de5e,Form,16,0,control,NULL,_REACTION_TIME_,5436
1534847965,7f4a03dfa123ea71ae39791f0742de5e,Form,6,0,exit_quest,NULL,know_conditons,the quality is good
1534847965,7f4a03dfa123ea71ae39791f0742de5e,Form,6,0,exit_quest,NULL,difficult,no because is an knowledgeable task
1534847965,7f4a03dfa123ea71ae39791f0742de5e,Form,6,0,exit_quest,NULL,anything_else,good
1534847965,7f4a03dfa123ea71ae39791f0742de5e,Form,6,0,exit_quest,NULL,dummy_checkbox_,yes
1534847965,7f4a03dfa123ea71ae39791f0742de5e,Form,6,0,exit_quest,NULL,_REACTION_TIME_,87111
#
# Results on Tuesday August 21 2018 10:39:29 UTC.
# USER AGENT: Mozilla/5.0 (Windows NT 6.1; Win64; x64) AppleWebKit/537.36 (KHTML, like Gecko) Chrome/68.0.3440.106 Safari/537.36
# Design number was non-random = 1
#
# Columns below this comment are as follows:
# 1. Time results were received.
# 2. MD5 hash of participant's IP address.
# 3. Controller name.
# 4. Item number.
# 5. Element number.
# 6. Type.
# 7. Group.
# 8. Field name.
# 9. Field value.
1534847969,ddd28682c1dc391201bd7955b8972d16,Form,2,0,consent,NULL,subject_id,A1WL6K3EUA2WOX
1534847969,ddd28682c1dc391201bd7955b8972d16,Form,2,0,consent,NULL,native_lang,ENGLISH
1534847969,ddd28682c1dc391201bd7955b8972d16,Form,2,0,consent,NULL,age,72
1534847969,ddd28682c1dc391201bd7955b8972d16,Form,2,0,consent,NULL,consent_checkbox_,no
1534847969,ddd28682c1dc391201bd7955b8972d16,Form,2,0,consent,NULL,dummy_checkbox_,yes
1534847969,ddd28682c1dc391201bd7955b8972d16,Form,2,0,consent,NULL,sex,male
1534847969,ddd28682c1dc391201bd7955b8972d16,Form,2,0,consent,NULL,_REACTION_TIME_,24087
1534847969,ddd28682c1dc391201bd7955b8972d16,Form,1,0,instructions,NULL,dummy_checkbox_,yes
1534847969,ddd28682c1dc391201bd7955b8972d16,Form,1,0,instructions,NULL,_REACTION_TIME_,28203
1534847969,ddd28682c1dc391201bd7955b8972d16,Form,4,0,train,NULL,train_m_A_chosen,yes
1534847969,ddd28682c1dc391201bd7955b8972d16,Form,4,0,train,NULL,train_m_B_chosen,yes
1534847969,ddd28682c1dc391201bd7955b8972d16,Form,4,0,train,NULL,train_m_C_chosen,yes
1534847969,ddd28682c1dc391201bd7955b8972d16,Form,4,0,train,NULL,none_chosen,yes
1534847969,ddd28682c1dc391201bd7955b8972d16,Form,4,0,train,NULL,_REACTION_TIME_,48521
1534847969,ddd28682c1dc391201bd7955b8972d16,Form,3,0,train,NULL,train_f_A_chosen,yes
1534847969,ddd28682c1dc391201bd7955b8972d16,Form,3,0,train,NULL,train_f_B_chosen,yes
1534847969,ddd28682c1dc391201bd7955b8972d16,Form,3,0,train,NULL,train_f_C_chosen,yes
1534847969,ddd28682c1dc391201bd7955b8972d16,Form,3,0,train,NULL,none_chosen,yes
1534847969,ddd28682c1dc391201bd7955b8972d16,Form,3,0,train,NULL,_REACTION_TIME_,10292
1534847969,ddd28682c1dc391201bd7955b8972d16,Form,5,0,train_end,NULL,dummy_checkbox_,yes
1534847969,ddd28682c1dc391201bd7955b8972d16,Form,5,0,train_end,NULL,_REACTION_TIME_,4139
1534847969,ddd28682c1dc391201bd7955b8972d16,Form,8,0,test,NULL,answers_reported,placeholderFriend 1 says%2C "Store E."%2CFriend 2 says%2C "Stores D and E."%2CFriend 3 says%2C "Stores A%2C B%2C C%2C D and E."
1534847969,ddd28682c1dc391201bd7955b8972d16,Form,8,0,test,NULL,shoes_A_chosen,yes
1534847969,ddd28682c1dc391201bd7955b8972d16,Form,8,0,test,NULL,shoes_B_chosen,yes
1534847969,ddd28682c1dc391201bd7955b8972d16,Form,8,0,test,NULL,shoes_C_chosen,yes
1534847969,ddd28682c1dc391201bd7955b8972d16,Form,8,0,test,NULL,no_one_chosen,no
1534847969,ddd28682c1dc391201bd7955b8972d16,Form,8,0,test,NULL,_REACTION_TIME_,10261
1534847969,ddd28682c1dc391201bd7955b8972d16,Form,10,0,test,NULL,answers_reported,placeholderFriend 1 says%2C "Stylist E."%2CFriend 2 says%2C "Stylist F."%2CFriend 3 says%2C "Stylists D and E."
1534847969,ddd28682c1dc391201bd7955b8972d16,Form,10,0,test,NULL,hair_A_chosen,yes
1534847969,ddd28682c1dc391201bd7955b8972d16,Form,10,0,test,NULL,hair_B_chosen,yes
1534847969,ddd28682c1dc391201bd7955b8972d16,Form,10,0,test,NULL,hair_C_chosen,yes
1534847969,ddd28682c1dc391201bd7955b8972d16,Form,10,0,test,NULL,no_one_chosen,no
1534847969,ddd28682c1dc391201bd7955b8972d16,Form,10,0,test,NULL,_REACTION_TIME_,7855
1534847969,ddd28682c1dc391201bd7955b8972d16,Form,25,0,nst,NULL,NST_4a_chosen,no
1534847969,ddd28682c1dc391201bd7955b8972d16,Form,25,0,nst,NULL,NST_4b_chosen,yes
1534847969,ddd28682c1dc391201bd7955b8972d16,Form,25,0,nst,NULL,_REACTION_TIME_,24550
1534847969,ddd28682c1dc391201bd7955b8972d16,Form,21,0,ginz,NULL,ginzwhere_smallgrain_y_chosen,yes
1534847969,ddd28682c1dc391201bd7955b8972d16,Form,21,0,ginz,NULL,ginzwhere_smallgrain_n_chosen,no
1534847969,ddd28682c1dc391201bd7955b8972d16,Form,21,0,ginz,NULL,_REACTION_TIME_,26569
1534847969,ddd28682c1dc391201bd7955b8972d16,Form,14,0,control,NULL,why_A_chosen,yes
1534847969,ddd28682c1dc391201bd7955b8972d16,Form,14,0,control,NULL,why_B_chosen,yes
1534847969,ddd28682c1dc391201bd7955b8972d16,Form,14,0,control,NULL,why_C_chosen,yes
1534847969,ddd28682c1dc391201bd7955b8972d16,Form,14,0,control,NULL,none_chosen,no
1534847969,ddd28682c1dc391201bd7955b8972d16,Form,14,0,control,NULL,_REACTION_TIME_,6078
1534847969,ddd28682c1dc391201bd7955b8972d16,Form,12,0,test,NULL,answers_reported,placeholderRoommate 1 says%2C "Stalls A%2C B%2C C%2C D and E."%2CRoommate 2 says%2C "Stall E."%2CRoommate 3 says%2C "Stalls D and E."
1534847969,ddd28682c1dc391201bd7955b8972d16,Form,12,0,test,NULL,florist_A_chosen,yes
1534847969,ddd28682c1dc391201bd7955b8972d16,Form,12,0,test,NULL,florist_B_chosen,yes
1534847969,ddd28682c1dc391201bd7955b8972d16,Form,12,0,test,NULL,florist_C_chosen,yes
1534847969,ddd28682c1dc391201bd7955b8972d16,Form,12,0,test,NULL,no_one_chosen,no
1534847969,ddd28682c1dc391201bd7955b8972d16,Form,12,0,test,NULL,_REACTION_TIME_,5102
1534847969,ddd28682c1dc391201bd7955b8972d16,Form,24,0,nst,NULL,NST_3a_chosen,yes
1534847969,ddd28682c1dc391201bd7955b8972d16,Form,24,0,nst,NULL,NST_3b_chosen,yes
1534847969,ddd28682c1dc391201bd7955b8972d16,Form,24,0,nst,NULL,NST_3c_chosen,no
1534847969,ddd28682c1dc391201bd7955b8972d16,Form,24,0,nst,NULL,NST_3d_chosen,no
1534847969,ddd28682c1dc391201bd7955b8972d16,Form,24,0,nst,NULL,NST_3e_chosen,no
1534847969,ddd28682c1dc391201bd7955b8972d16,Form,24,0,nst,NULL,_REACTION_TIME_,12158
1534847969,ddd28682c1dc391201bd7955b8972d16,Form,18,0,ginz,NULL,ginzwhere_largegrain_y_chosen,yes
1534847969,ddd28682c1dc391201bd7955b8972d16,Form,18,0,ginz,NULL,ginzwhere_largegrain_n_chosen,no
1534847969,ddd28682c1dc391201bd7955b8972d16,Form,18,0,ginz,NULL,_REACTION_TIME_,14048
1534847969,ddd28682c1dc391201bd7955b8972d16,Form,9,0,test,NULL,answers_reported,placeholderFriend 1 says%2C "Bookstores A and B."%2CFriend 2 says%2C "Bookstores D and E."%2CFriend 3 says%2C "Bookstore E."
1534847969,ddd28682c1dc391201bd7955b8972d16,Form,9,0,test,NULL,books_A_chosen,yes
1534847969,ddd28682c1dc391201bd7955b8972d16,Form,9,0,test,NULL,books_B_chosen,yes
1534847969,ddd28682c1dc391201bd7955b8972d16,Form,9,0,test,NULL,books_C_chosen,yes
1534847969,ddd28682c1dc391201bd7955b8972d16,Form,9,0,test,NULL,no_one_chosen,no
1534847969,ddd28682c1dc391201bd7955b8972d16,Form,9,0,test,NULL,_REACTION_TIME_,5806
1534847969,ddd28682c1dc391201bd7955b8972d16,Form,16,0,control,NULL,when_A_chosen,no
1534847969,ddd28682c1dc391201bd7955b8972d16,Form,16,0,control,NULL,when_B_chosen,yes
1534847969,ddd28682c1dc391201bd7955b8972d16,Form,16,0,control,NULL,when_C_chosen,no
1534847969,ddd28682c1dc391201bd7955b8972d16,Form,16,0,control,NULL,none_chosen,no
1534847969,ddd28682c1dc391201bd7955b8972d16,Form,16,0,control,NULL,_REACTION_TIME_,32986
1534847969,ddd28682c1dc391201bd7955b8972d16,Form,13,0,test,NULL,answers_reported,placeholderRoommate 1 says%2C "Cafe A."%2CRoommate 2 says%2C "Cafe E."%2CRoommate 3 says%2C "Cafes D and E."
1534847969,ddd28682c1dc391201bd7955b8972d16,Form,13,0,test,NULL,coffee_A_chosen,yes
1534847969,ddd28682c1dc391201bd7955b8972d16,Form,13,0,test,NULL,coffee_B_chosen,yes
1534847969,ddd28682c1dc391201bd7955b8972d16,Form,13,0,test,NULL,coffee_C_chosen,yes
1534847969,ddd28682c1dc391201bd7955b8972d16,Form,13,0,test,NULL,no_one_chosen,no
1534847969,ddd28682c1dc391201bd7955b8972d16,Form,13,0,test,NULL,_REACTION_TIME_,6180
1534847969,ddd28682c1dc391201bd7955b8972d16,Form,22,0,nst,NULL,NST_1a_chosen,yes
1534847969,ddd28682c1dc391201bd7955b8972d16,Form,22,0,nst,NULL,NST_1b_chosen,yes
1534847969,ddd28682c1dc391201bd7955b8972d16,Form,22,0,nst,NULL,NST_1c_chosen,no
1534847969,ddd28682c1dc391201bd7955b8972d16,Form,22,0,nst,NULL,NST_1d_chosen,no
1534847969,ddd28682c1dc391201bd7955b8972d16,Form,22,0,nst,NULL,_REACTION_TIME_,9265
1534847969,ddd28682c1dc391201bd7955b8972d16,Form,20,0,ginz,NULL,ginzwho_smallgrain_y_chosen,yes
1534847969,ddd28682c1dc391201bd7955b8972d16,Form,20,0,ginz,NULL,ginzwho_smallgrain_n_chosen,no
1534847969,ddd28682c1dc391201bd7955b8972d16,Form,20,0,ginz,NULL,_REACTION_TIME_,2981
1534847969,ddd28682c1dc391201bd7955b8972d16,Form,17,0,control,NULL,how_guest_A_chosen,yes
1534847969,ddd28682c1dc391201bd7955b8972d16,Form,17,0,control,NULL,how_guest_B_chosen,yes
1534847969,ddd28682c1dc391201bd7955b8972d16,Form,17,0,control,NULL,how_guest_C_chosen,yes
1534847969,ddd28682c1dc391201bd7955b8972d16,Form,17,0,control,NULL,none_chosen,no
1534847969,ddd28682c1dc391201bd7955b8972d16,Form,17,0,control,NULL,_REACTION_TIME_,5060
1534847969,ddd28682c1dc391201bd7955b8972d16,Form,11,0,test,NULL,answers_reported,placeholderCoworker 1 says%2C "Dentist A."%2CCoworker 2 says%2C "Dentists A%2C B%2C C%2C D and E."%2CCoworker 3 says%2C "Dentists A and B."
1534847969,ddd28682c1dc391201bd7955b8972d16,Form,11,0,test,NULL,dentist_A_chosen,yes
1534847969,ddd28682c1dc391201bd7955b8972d16,Form,11,0,test,NULL,dentist_B_chosen,yes
1534847969,ddd28682c1dc391201bd7955b8972d16,Form,11,0,test,NULL,dentist_C_chosen,yes
1534847969,ddd28682c1dc391201bd7955b8972d16,Form,11,0,test,NULL,no_one_chosen,no
1534847969,ddd28682c1dc391201bd7955b8972d16,Form,11,0,test,NULL,_REACTION_TIME_,7998
1534847969,ddd28682c1dc391201bd7955b8972d16,Form,23,0,nst,NULL,NST_2a_chosen,yes
1534847969,ddd28682c1dc391201bd7955b8972d16,Form,23,0,nst,NULL,NST_2b_chosen,yes
1534847969,ddd28682c1dc391201bd7955b8972d16,Form,23,0,nst,NULL,NST_2c_chosen,no
1534847969,ddd28682c1dc391201bd7955b8972d16,Form,23,0,nst,NULL,NST_2d_chosen,no
1534847969,ddd28682c1dc391201bd7955b8972d16,Form,23,0,nst,NULL,NST_2e_chosen,no
1534847969,ddd28682c1dc391201bd7955b8972d16,Form,23,0,nst,NULL,_REACTION_TIME_,8268
1534847969,ddd28682c1dc391201bd7955b8972d16,Form,19,0,ginz,NULL,ginzwhere_largegrain_y_chosen,yes
1534847969,ddd28682c1dc391201bd7955b8972d16,Form,19,0,ginz,NULL,ginzwhere_largegrain_n_chosen,no
1534847969,ddd28682c1dc391201bd7955b8972d16,Form,19,0,ginz,NULL,_REACTION_TIME_,3145
1534847969,ddd28682c1dc391201bd7955b8972d16,Form,15,0,control,NULL,what_A_chosen,yes
1534847969,ddd28682c1dc391201bd7955b8972d16,Form,15,0,control,NULL,what_B_chosen,yes
1534847969,ddd28682c1dc391201bd7955b8972d16,Form,15,0,control,NULL,what_C_chosen,yes
1534847969,ddd28682c1dc391201bd7955b8972d16,Form,15,0,control,NULL,none_chosen,no
1534847969,ddd28682c1dc391201bd7955b8972d16,Form,15,0,control,NULL,_REACTION_TIME_,5336
1534847969,ddd28682c1dc391201bd7955b8972d16,Form,6,0,exit_quest,NULL,know_conditons,SHE SAYS GO FOR THE TOWN
1534847969,ddd28682c1dc391201bd7955b8972d16,Form,6,0,exit_quest,NULL,difficult,NO
1534847969,ddd28682c1dc391201bd7955b8972d16,Form,6,0,exit_quest,NULL,anything_else,NICE TASK
1534847969,ddd28682c1dc391201bd7955b8972d16,Form,6,0,exit_quest,NULL,dummy_checkbox_,yes
1534847969,ddd28682c1dc391201bd7955b8972d16,Form,6,0,exit_quest,NULL,_REACTION_TIME_,49188
#
# Results on Tuesday August 21 2018 10:40:07 UTC.
# USER AGENT: Mozilla/5.0 (Windows NT 6.1; Win64; x64) AppleWebKit/537.36 (KHTML, like Gecko) Chrome/68.0.3440.106 Safari/537.36
# Design number was non-random = 1
#
# Columns below this comment are as follows:
# 1. Time results were received.
# 2. MD5 hash of participant's IP address.
# 3. Controller name.
# 4. Item number.
# 5. Element number.
# 6. Type.
# 7. Group.
# 8. Field name.
# 9. Field value.
1534848008,d4d1d286411cc283488c34289a247732,Form,2,0,consent,NULL,subject_id,A2APHZ2KOI1MPI
1534848008,d4d1d286411cc283488c34289a247732,Form,2,0,consent,NULL,native_lang,English
1534848008,d4d1d286411cc283488c34289a247732,Form,2,0,consent,NULL,age,51
1534848008,d4d1d286411cc283488c34289a247732,Form,2,0,consent,NULL,consent_checkbox_,yes
1534848008,d4d1d286411cc283488c34289a247732,Form,2,0,consent,NULL,dummy_checkbox_,yes
1534848008,d4d1d286411cc283488c34289a247732,Form,2,0,consent,NULL,sex,male
1534848008,d4d1d286411cc283488c34289a247732,Form,2,0,consent,NULL,_REACTION_TIME_,41911
1534848008,d4d1d286411cc283488c34289a247732,Form,1,0,instructions,NULL,dummy_checkbox_,yes
1534848008,d4d1d286411cc283488c34289a247732,Form,1,0,instructions,NULL,_REACTION_TIME_,7051
1534848008,d4d1d286411cc283488c34289a247732,Form,4,0,train,NULL,train_m_A_chosen,yes
1534848008,d4d1d286411cc283488c34289a247732,Form,4,0,train,NULL,train_m_B_chosen,yes
1534848008,d4d1d286411cc283488c34289a247732,Form,4,0,train,NULL,train_m_C_chosen,yes
1534848008,d4d1d286411cc283488c34289a247732,Form,4,0,train,NULL,none_chosen,no
1534848008,d4d1d286411cc283488c34289a247732,Form,4,0,train,NULL,_REACTION_TIME_,38289
1534848008,d4d1d286411cc283488c34289a247732,Form,3,0,train,NULL,train_f_A_chosen,yes
1534848008,d4d1d286411cc283488c34289a247732,Form,3,0,train,NULL,train_f_B_chosen,yes
1534848008,d4d1d286411cc283488c34289a247732,Form,3,0,train,NULL,train_f_C_chosen,yes
1534848008,d4d1d286411cc283488c34289a247732,Form,3,0,train,NULL,none_chosen,no
1534848008,d4d1d286411cc283488c34289a247732,Form,3,0,train,NULL,_REACTION_TIME_,28666
1534848008,d4d1d286411cc283488c34289a247732,Form,5,0,train_end,NULL,dummy_checkbox_,yes
1534848008,d4d1d286411cc283488c34289a247732,Form,5,0,train_end,NULL,_REACTION_TIME_,2834
1534848008,d4d1d286411cc283488c34289a247732,Form,12,0,test,NULL,answers_reported,placeholderRoommate 1 says%2C "Stalls D and E."%2CRoommate 2 says%2C "Stall F."%2CRoommate 3 says%2C "Stalls A and B."
1534848008,d4d1d286411cc283488c34289a247732,Form,12,0,test,NULL,florist_A_chosen,yes
1534848008,d4d1d286411cc283488c34289a247732,Form,12,0,test,NULL,florist_B_chosen,yes
1534848008,d4d1d286411cc283488c34289a247732,Form,12,0,test,NULL,florist_C_chosen,no
1534848008,d4d1d286411cc283488c34289a247732,Form,12,0,test,NULL,no_one_chosen,no
1534848008,d4d1d286411cc283488c34289a247732,Form,12,0,test,NULL,_REACTION_TIME_,45014
1534848008,d4d1d286411cc283488c34289a247732,Form,21,0,ginz,NULL,ginzwhere_smallgrain_y_chosen,yes
1534848008,d4d1d286411cc283488c34289a247732,Form,21,0,ginz,NULL,ginzwhere_smallgrain_n_chosen,no
1534848008,d4d1d286411cc283488c34289a247732,Form,21,0,ginz,NULL,_REACTION_TIME_,27550
1534848008,d4d1d286411cc283488c34289a247732,Form,8,0,test,NULL,answers_reported,placeholderFriend 1 says%2C "Stores A and B."%2CFriend 2 says%2C "Stores D and E."%2CFriend 3 says%2C "Store A."
1534848008,d4d1d286411cc283488c34289a247732,Form,8,0,test,NULL,shoes_A_chosen,yes
1534848008,d4d1d286411cc283488c34289a247732,Form,8,0,test,NULL,shoes_B_chosen,yes
1534848008,d4d1d286411cc283488c34289a247732,Form,8,0,test,NULL,shoes_C_chosen,no
1534848008,d4d1d286411cc283488c34289a247732,Form,8,0,test,NULL,no_one_chosen,no
1534848008,d4d1d286411cc283488c34289a247732,Form,8,0,test,NULL,_REACTION_TIME_,6157
1534848008,d4d1d286411cc283488c34289a247732,Form,22,0,nst,NULL,NST_1a_chosen,yes
1534848008,d4d1d286411cc283488c34289a247732,Form,22,0,nst,NULL,NST_1b_chosen,yes
1534848008,d4d1d286411cc283488c34289a247732,Form,22,0,nst,NULL,NST_1c_chosen,no
1534848008,d4d1d286411cc283488c34289a247732,Form,22,0,nst,NULL,NST_1d_chosen,yes
1534848008,d4d1d286411cc283488c34289a247732,Form,22,0,nst,NULL,_REACTION_TIME_,12534
1534848008,d4d1d286411cc283488c34289a247732,Form,16,0,control,NULL,when_A_chosen,yes
1534848008,d4d1d286411cc283488c34289a247732,Form,16,0,control,NULL,when_B_chosen,yes
1534848008,d4d1d286411cc283488c34289a247732,Form,16,0,control,NULL,when_C_chosen,no
1534848008,d4d1d286411cc283488c34289a247732,Form,16,0,control,NULL,none_chosen,no
1534848008,d4d1d286411cc283488c34289a247732,Form,16,0,control,NULL,_REACTION_TIME_,22222
1534848008,d4d1d286411cc283488c34289a247732,Form,18,0,ginz,NULL,ginzwhere_largegrain_y_chosen,yes
1534848008,d4d1d286411cc283488c34289a247732,Form,18,0,ginz,NULL,ginzwhere_largegrain_n_chosen,no
1534848008,d4d1d286411cc283488c34289a247732,Form,18,0,ginz,NULL,_REACTION_TIME_,21145
1534848008,d4d1d286411cc283488c34289a247732,Form,11,0,test,NULL,answers_reported,placeholderCoworker 1 says%2C "Dentists D and E."%2CCoworker 2 says%2C "Dentist E."%2CCoworker 3 says%2C "Dentists A and B."
1534848008,d4d1d286411cc283488c34289a247732,Form,11,0,test,NULL,dentist_A_chosen,yes
1534848008,d4d1d286411cc283488c34289a247732,Form,11,0,test,NULL,dentist_B_chosen,yes
1534848008,d4d1d286411cc283488c34289a247732,Form,11,0,test,NULL,dentist_C_chosen,no
1534848008,d4d1d286411cc283488c34289a247732,Form,11,0,test,NULL,no_one_chosen,no
1534848008,d4d1d286411cc283488c34289a247732,Form,11,0,test,NULL,_REACTION_TIME_,9090
1534848008,d4d1d286411cc283488c34289a247732,Form,23,0,nst,NULL,NST_2a_chosen,yes
1534848008,d4d1d286411cc283488c34289a247732,Form,23,0,nst,NULL,NST_2b_chosen,yes
1534848008,d4d1d286411cc283488c34289a247732,Form,23,0,nst,NULL,NST_2c_chosen,no
1534848008,d4d1d286411cc283488c34289a247732,Form,23,0,nst,NULL,NST_2d_chosen,yes
1534848008,d4d1d286411cc283488c34289a247732,Form,23,0,nst,NULL,NST_2e_chosen,no
1534848008,d4d1d286411cc283488c34289a247732,Form,23,0,nst,NULL,_REACTION_TIME_,6285
1534848008,d4d1d286411cc283488c34289a247732,Form,10,0,test,NULL,answers_reported,placeholderFriend 1 says%2C "Stylist A."%2CFriend 2 says%2C "Stylists D and E."%2CFriend 3 says%2C "Stylist E."
1534848008,d4d1d286411cc283488c34289a247732,Form,10,0,test,NULL,hair_A_chosen,no
1534848008,d4d1d286411cc283488c34289a247732,Form,10,0,test,NULL,hair_B_chosen,yes
1534848008,d4d1d286411cc283488c34289a247732,Form,10,0,test,NULL,hair_C_chosen,yes
1534848008,d4d1d286411cc283488c34289a247732,Form,10,0,test,NULL,no_one_chosen,no
1534848008,d4d1d286411cc283488c34289a247732,Form,10,0,test,NULL,_REACTION_TIME_,5078
1534848008,d4d1d286411cc283488c34289a247732,Form,15,0,control,NULL,what_A_chosen,no
1534848008,d4d1d286411cc283488c34289a247732,Form,15,0,control,NULL,what_B_chosen,yes
1534848008,d4d1d286411cc283488c34289a247732,Form,15,0,control,NULL,what_C_chosen,yes
1534848008,d4d1d286411cc283488c34289a247732,Form,15,0,control,NULL,none_chosen,no
1534848008,d4d1d286411cc283488c34289a247732,Form,15,0,control,NULL,_REACTION_TIME_,4777
1534848008,d4d1d286411cc283488c34289a247732,Form,20,0,ginz,NULL,ginzwho_smallgrain_y_chosen,yes
1534848008,d4d1d286411cc283488c34289a247732,Form,20,0,ginz,NULL,ginzwho_smallgrain_n_chosen,no
1534848008,d4d1d286411cc283488c34289a247732,Form,20,0,ginz,NULL,_REACTION_TIME_,4834
1534848008,d4d1d286411cc283488c34289a247732,Form,13,0,test,NULL,answers_reported,placeholderRoommate 1 says%2C "Cafe E."%2CRoommate 2 says%2C "Cafe F."%2CRoommate 3 says%2C "Cafe A."
1534848008,d4d1d286411cc283488c34289a247732,Form,13,0,test,NULL,coffee_A_chosen,yes
1534848008,d4d1d286411cc283488c34289a247732,Form,13,0,test,NULL,coffee_B_chosen,yes
1534848008,d4d1d286411cc283488c34289a247732,Form,13,0,test,NULL,coffee_C_chosen,no
1534848008,d4d1d286411cc283488c34289a247732,Form,13,0,test,NULL,no_one_chosen,no
1534848008,d4d1d286411cc283488c34289a247732,Form,13,0,test,NULL,_REACTION_TIME_,9766
1534848008,d4d1d286411cc283488c34289a247732,Form,25,0,nst,NULL,NST_4a_chosen,no
1534848008,d4d1d286411cc283488c34289a247732,Form,25,0,nst,NULL,NST_4b_chosen,yes
1534848008,d4d1d286411cc283488c34289a247732,Form,25,0,nst,NULL,_REACTION_TIME_,14582
1534848008,d4d1d286411cc283488c34289a247732,Form,17,0,control,NULL,how_guest_A_chosen,yes
1534848008,d4d1d286411cc283488c34289a247732,Form,17,0,control,NULL,how_guest_B_chosen,yes
1534848008,d4d1d286411cc283488c34289a247732,Form,17,0,control,NULL,how_guest_C_chosen,no
1534848008,d4d1d286411cc283488c34289a247732,Form,17,0,control,NULL,none_chosen,no
1534848008,d4d1d286411cc283488c34289a247732,Form,17,0,control,NULL,_REACTION_TIME_,5645
1534848008,d4d1d286411cc283488c34289a247732,Form,9,0,test,NULL,answers_reported,placeholderFriend 1 says%2C "Bookstore A."%2CFriend 2 says%2C "Bookstores D and E."%2CFriend 3 says%2C "Bookstore E."
1534848008,d4d1d286411cc283488c34289a247732,Form,9,0,test,NULL,books_A_chosen,no
1534848008,d4d1d286411cc283488c34289a247732,Form,9,0,test,NULL,books_B_chosen,yes
1534848008,d4d1d286411cc283488c34289a247732,Form,9,0,test,NULL,books_C_chosen,yes
1534848008,d4d1d286411cc283488c34289a247732,Form,9,0,test,NULL,no_one_chosen,no
1534848008,d4d1d286411cc283488c34289a247732,Form,9,0,test,NULL,_REACTION_TIME_,4521
1534848008,d4d1d286411cc283488c34289a247732,Form,19,0,ginz,NULL,ginzwhere_largegrain_y_chosen,yes
1534848008,d4d1d286411cc283488c34289a247732,Form,19,0,ginz,NULL,ginzwhere_largegrain_n_chosen,no
1534848008,d4d1d286411cc283488c34289a247732,Form,19,0,ginz,NULL,_REACTION_TIME_,6323
1534848008,d4d1d286411cc283488c34289a247732,Form,24,0,nst,NULL,NST_3a_chosen,yes
1534848008,d4d1d286411cc283488c34289a247732,Form,24,0,nst,NULL,NST_3b_chosen,yes
1534848008,d4d1d286411cc283488c34289a247732,Form,24,0,nst,NULL,NST_3c_chosen,no
1534848008,d4d1d286411cc283488c34289a247732,Form,24,0,nst,NULL,NST_3d_chosen,yes
1534848008,d4d1d286411cc283488c34289a247732,Form,24,0,nst,NULL,NST_3e_chosen,no
1534848008,d4d1d286411cc283488c34289a247732,Form,24,0,nst,NULL,_REACTION_TIME_,16319
1534848008,d4d1d286411cc283488c34289a247732,Form,14,0,control,NULL,why_A_chosen,yes
1534848008,d4d1d286411cc283488c34289a247732,Form,14,0,control,NULL,why_B_chosen,yes
1534848008,d4d1d286411cc283488c34289a247732,Form,14,0,control,NULL,why_C_chosen,no
1534848008,d4d1d286411cc283488c34289a247732,Form,14,0,control,NULL,none_chosen,no
1534848008,d4d1d286411cc283488c34289a247732,Form,14,0,control,NULL,_REACTION_TIME_,4498
1534848008,d4d1d286411cc283488c34289a247732,Form,6,0,exit_quest,NULL,know_conditons,she is also go for that place so ask that
1534848008,d4d1d286411cc283488c34289a247732,Form,6,0,exit_quest,NULL,difficult,no difficult
1534848008,d4d1d286411cc283488c34289a247732,Form,6,0,exit_quest,NULL,anything_else,good
1534848008,d4d1d286411cc283488c34289a247732,Form,6,0,exit_quest,NULL,dummy_checkbox_,yes
1534848008,d4d1d286411cc283488c34289a247732,Form,6,0,exit_quest,NULL,_REACTION_TIME_,58911
#
# Results on Tuesday August 21 2018 10:41:55 UTC.
# USER AGENT: Mozilla/5.0 (Windows NT 10.0; Win64; x64) AppleWebKit/537.36 (KHTML, like Gecko) Chrome/68.0.3440.106 Safari/537.36
# Design number was non-random = 1
#
# Columns below this comment are as follows:
# 1. Time results were received.
# 2. MD5 hash of participant's IP address.
# 3. Controller name.
# 4. Item number.
# 5. Element number.
# 6. Type.
# 7. Group.
# 8. Field name.
# 9. Field value.
1534848115,2f967119f4f9abf529730e559f88e26f,Form,2,0,consent,NULL,subject_id,A1C7XI68SED8JE
1534848115,2f967119f4f9abf529730e559f88e26f,Form,2,0,consent,NULL,native_lang,english
1534848115,2f967119f4f9abf529730e559f88e26f,Form,2,0,consent,NULL,age,35
1534848115,2f967119f4f9abf529730e559f88e26f,Form,2,0,consent,NULL,consent_checkbox_,yes
1534848115,2f967119f4f9abf529730e559f88e26f,Form,2,0,consent,NULL,dummy_checkbox_,yes
1534848115,2f967119f4f9abf529730e559f88e26f,Form,2,0,consent,NULL,sex,female
1534848115,2f967119f4f9abf529730e559f88e26f,Form,2,0,consent,NULL,_REACTION_TIME_,29931
1534848115,2f967119f4f9abf529730e559f88e26f,Form,1,0,instructions,NULL,dummy_checkbox_,yes
1534848115,2f967119f4f9abf529730e559f88e26f,Form,1,0,instructions,NULL,_REACTION_TIME_,12730
1534848115,2f967119f4f9abf529730e559f88e26f,Form,3,0,train,NULL,train_f_A_chosen,no
1534848115,2f967119f4f9abf529730e559f88e26f,Form,3,0,train,NULL,train_f_B_chosen,no
1534848115,2f967119f4f9abf529730e559f88e26f,Form,3,0,train,NULL,train_f_C_chosen,no
1534848115,2f967119f4f9abf529730e559f88e26f,Form,3,0,train,NULL,none_chosen,yes
1534848115,2f967119f4f9abf529730e559f88e26f,Form,3,0,train,NULL,_REACTION_TIME_,39429
1534848115,2f967119f4f9abf529730e559f88e26f,Form,4,0,train,NULL,train_m_A_chosen,no
1534848115,2f967119f4f9abf529730e559f88e26f,Form,4,0,train,NULL,train_m_B_chosen,no
1534848115,2f967119f4f9abf529730e559f88e26f,Form,4,0,train,NULL,train_m_C_chosen,yes
1534848115,2f967119f4f9abf529730e559f88e26f,Form,4,0,train,NULL,none_chosen,no
1534848115,2f967119f4f9abf529730e559f88e26f,Form,4,0,train,NULL,_REACTION_TIME_,39903
1534848115,2f967119f4f9abf529730e559f88e26f,Form,5,0,train_end,NULL,dummy_checkbox_,yes
1534848115,2f967119f4f9abf529730e559f88e26f,Form,5,0,train_end,NULL,_REACTION_TIME_,1847
