#
# Results on Saturday April 21 2018 20:11:46 UTC.
# USER AGENT: Mozilla/5.0 (Windows NT 6.1) AppleWebKit/537.36 (KHTML, like Gecko) Chrome/66.0.3359.117 Safari/537.36
# Design number was non-random = 2
#
# Columns below this comment are as follows:
# 1. Time results were received.
# 2. MD5 hash of participant's IP address.
# 3. Controller name.
# 4. Item number.
# 5. Element number.
# 6. Type.
# 7. Group.
# 8. Field name.
# 9. Field value.
1524341506,bc61dbe2bdf49bda680b129db4c323f5,Form,2,0,consent,NULL,subject_id,A3KTUKOVGWE9CF
1524341506,bc61dbe2bdf49bda680b129db4c323f5,Form,2,0,consent,NULL,native_lang,english
1524341506,bc61dbe2bdf49bda680b129db4c323f5,Form,2,0,consent,NULL,age,27
1524341506,bc61dbe2bdf49bda680b129db4c323f5,Form,2,0,consent,NULL,consent_checkbox_,yes
1524341506,bc61dbe2bdf49bda680b129db4c323f5,Form,2,0,consent,NULL,dummy_checkbox_,yes
1524341506,bc61dbe2bdf49bda680b129db4c323f5,Form,2,0,consent,NULL,sex,female
1524341506,bc61dbe2bdf49bda680b129db4c323f5,Form,2,0,consent,NULL,_REACTION_TIME_,44870
1524341506,bc61dbe2bdf49bda680b129db4c323f5,Form,1,0,instructions,NULL,dummy_checkbox_,yes
1524341506,bc61dbe2bdf49bda680b129db4c323f5,Form,1,0,instructions,NULL,_REACTION_TIME_,28732
1524341506,bc61dbe2bdf49bda680b129db4c323f5,Form,4,0,train,NULL,train_m_A_chosen,yes
1524341506,bc61dbe2bdf49bda680b129db4c323f5,Form,4,0,train,NULL,train_m_B_chosen,no
1524341506,bc61dbe2bdf49bda680b129db4c323f5,Form,4,0,train,NULL,train_m_C_chosen,no
1524341506,bc61dbe2bdf49bda680b129db4c323f5,Form,4,0,train,NULL,none_chosen,no
1524341506,bc61dbe2bdf49bda680b129db4c323f5,Form,4,0,train,NULL,_REACTION_TIME_,13974
1524341506,bc61dbe2bdf49bda680b129db4c323f5,Form,3,0,train,NULL,train_f_A_chosen,no
1524341506,bc61dbe2bdf49bda680b129db4c323f5,Form,3,0,train,NULL,train_f_B_chosen,yes
1524341506,bc61dbe2bdf49bda680b129db4c323f5,Form,3,0,train,NULL,train_f_C_chosen,no
1524341506,bc61dbe2bdf49bda680b129db4c323f5,Form,3,0,train,NULL,none_chosen,no
1524341506,bc61dbe2bdf49bda680b129db4c323f5,Form,3,0,train,NULL,_REACTION_TIME_,42782
1524341506,bc61dbe2bdf49bda680b129db4c323f5,Form,5,0,train_end,NULL,dummy_checkbox_,yes
1524341506,bc61dbe2bdf49bda680b129db4c323f5,Form,5,0,train_end,NULL,_REACTION_TIME_,5066
1524341506,bc61dbe2bdf49bda680b129db4c323f5,Form,14,0,low,NULL,answers_reported,placeholderFriend 1 says%2C "Diner B."%2CFriend 2 says%2C "Diner C."%2CFriend 3 says%2C "Diners C and F."
1524341506,bc61dbe2bdf49bda680b129db4c323f5,Form,14,0,low,NULL,la_friend_A_chosen,yes
1524341506,bc61dbe2bdf49bda680b129db4c323f5,Form,14,0,low,NULL,la_friend_B_chosen,no
1524341506,bc61dbe2bdf49bda680b129db4c323f5,Form,14,0,low,NULL,la_friend_C_chosen,no
1524341506,bc61dbe2bdf49bda680b129db4c323f5,Form,14,0,low,NULL,no_one_chosen,no
1524341506,bc61dbe2bdf49bda680b129db4c323f5,Form,14,0,low,NULL,_REACTION_TIME_,40349
1524341506,bc61dbe2bdf49bda680b129db4c323f5,Form,10,0,high,NULL,answers_reported,placeholderOperative 1 says%2C "The West district."%2COperative 2 says%2C "The Northeast district."%2COperative 3 says%2C "The North district."
1524341506,bc61dbe2bdf49bda680b129db4c323f5,Form,10,0,high,NULL,operative_A_chosen,yes
1524341506,bc61dbe2bdf49bda680b129db4c323f5,Form,10,0,high,NULL,operative_B_chosen,no
1524341506,bc61dbe2bdf49bda680b129db4c323f5,Form,10,0,high,NULL,operative_C_chosen,no
1524341506,bc61dbe2bdf49bda680b129db4c323f5,Form,10,0,high,NULL,no_one_chosen,no
1524341506,bc61dbe2bdf49bda680b129db4c323f5,Form,10,0,high,NULL,_REACTION_TIME_,4413
1524341506,bc61dbe2bdf49bda680b129db4c323f5,Form,22,0,nst,NULL,NST_1a_chosen,no
1524341506,bc61dbe2bdf49bda680b129db4c323f5,Form,22,0,nst,NULL,NST_1b_chosen,yes
1524341506,bc61dbe2bdf49bda680b129db4c323f5,Form,22,0,nst,NULL,NST_1c_chosen,no
1524341506,bc61dbe2bdf49bda680b129db4c323f5,Form,22,0,nst,NULL,NST_1d_chosen,no
1524341506,bc61dbe2bdf49bda680b129db4c323f5,Form,22,0,nst,NULL,_REACTION_TIME_,23489
1524341506,bc61dbe2bdf49bda680b129db4c323f5,Form,13,0,low,NULL,answers_reported,placeholderCousin 1 says%2C "Locations D and F."%2CCousin 2 says%2C "Location B."%2CCousin 3 says%2C "Location F."
1524341506,bc61dbe2bdf49bda680b129db4c323f5,Form,13,0,low,NULL,pic_cousin_A_chosen,no
1524341506,bc61dbe2bdf49bda680b129db4c323f5,Form,13,0,low,NULL,pic_cousin_B_chosen,yes
1524341506,bc61dbe2bdf49bda680b129db4c323f5,Form,13,0,low,NULL,pic_cousin_C_chosen,no
1524341506,bc61dbe2bdf49bda680b129db4c323f5,Form,13,0,low,NULL,no_one_chosen,no
1524341506,bc61dbe2bdf49bda680b129db4c323f5,Form,13,0,low,NULL,_REACTION_TIME_,9205
1524341506,bc61dbe2bdf49bda680b129db4c323f5,Form,20,0,control,NULL,when_A_chosen,no
1524341506,bc61dbe2bdf49bda680b129db4c323f5,Form,20,0,control,NULL,when_B_chosen,yes
1524341506,bc61dbe2bdf49bda680b129db4c323f5,Form,20,0,control,NULL,when_C_chosen,no
1524341506,bc61dbe2bdf49bda680b129db4c323f5,Form,20,0,control,NULL,none_chosen,no
1524341506,bc61dbe2bdf49bda680b129db4c323f5,Form,20,0,control,NULL,_REACTION_TIME_,2799
1524341506,bc61dbe2bdf49bda680b129db4c323f5,Form,12,0,high,NULL,answers_reported,placeholderInvestigator 1 says%2C "Places F%2C A%2C B%2C C and E."%2CInvestigator 2 says%2C "Place F."%2CInvestigator 3 says%2C "Places B and E."
1524341506,bc61dbe2bdf49bda680b129db4c323f5,Form,12,0,high,NULL,fbi_investigator_A_chosen,no
1524341506,bc61dbe2bdf49bda680b129db4c323f5,Form,12,0,high,NULL,fbi_investigator_B_chosen,no
1524341506,bc61dbe2bdf49bda680b129db4c323f5,Form,12,0,high,NULL,fbi_investigator_C_chosen,yes
1524341506,bc61dbe2bdf49bda680b129db4c323f5,Form,12,0,high,NULL,no_one_chosen,no
1524341506,bc61dbe2bdf49bda680b129db4c323f5,Form,12,0,high,NULL,_REACTION_TIME_,4286
1524341506,bc61dbe2bdf49bda680b129db4c323f5,Form,24,0,nst,NULL,NST_3a_chosen,yes
1524341506,bc61dbe2bdf49bda680b129db4c323f5,Form,24,0,nst,NULL,NST_3b_chosen,no
1524341506,bc61dbe2bdf49bda680b129db4c323f5,Form,24,0,nst,NULL,NST_3c_chosen,no
1524341506,bc61dbe2bdf49bda680b129db4c323f5,Form,24,0,nst,NULL,NST_3d_chosen,no
1524341506,bc61dbe2bdf49bda680b129db4c323f5,Form,24,0,nst,NULL,NST_3e_chosen,no
1524341506,bc61dbe2bdf49bda680b129db4c323f5,Form,24,0,nst,NULL,_REACTION_TIME_,9431
1524341506,bc61dbe2bdf49bda680b129db4c323f5,Form,16,0,low,NULL,answers_reported,placeholderCoworker 1 says%2C "Studio F."%2CCoworker 2 says%2C "Studio B."%2CCoworker 3 says%2C "Studios C and B."
1524341506,bc61dbe2bdf49bda680b129db4c323f5,Form,16,0,low,NULL,yoga_coworker_A_chosen,no
1524341506,bc61dbe2bdf49bda680b129db4c323f5,Form,16,0,low,NULL,yoga_coworker_B_chosen,yes
1524341506,bc61dbe2bdf49bda680b129db4c323f5,Form,16,0,low,NULL,yoga_coworker_C_chosen,no
1524341506,bc61dbe2bdf49bda680b129db4c323f5,Form,16,0,low,NULL,no_one_chosen,no
1524341506,bc61dbe2bdf49bda680b129db4c323f5,Form,16,0,low,NULL,_REACTION_TIME_,3608
1524341506,bc61dbe2bdf49bda680b129db4c323f5,Form,18,0,control,NULL,why_A_chosen,no
1524341506,bc61dbe2bdf49bda680b129db4c323f5,Form,18,0,control,NULL,why_B_chosen,yes
1524341506,bc61dbe2bdf49bda680b129db4c323f5,Form,18,0,control,NULL,why_C_chosen,no
1524341506,bc61dbe2bdf49bda680b129db4c323f5,Form,18,0,control,NULL,none_chosen,no
1524341506,bc61dbe2bdf49bda680b129db4c323f5,Form,18,0,control,NULL,_REACTION_TIME_,2197
1524341506,bc61dbe2bdf49bda680b129db4c323f5,Form,9,0,high,NULL,answers_reported,placeholderFirefighter 1 says%2C "The fifth floor."%2CFirefighter 2 says%2C "The fourth and sixth floors."%2CFirefighter 3 says%2C "The fifth and second floors."
1524341506,bc61dbe2bdf49bda680b129db4c323f5,Form,9,0,high,NULL,firefighter_A_chosen,no
1524341506,bc61dbe2bdf49bda680b129db4c323f5,Form,9,0,high,NULL,firefighter_B_chosen,no
1524341506,bc61dbe2bdf49bda680b129db4c323f5,Form,9,0,high,NULL,firefighter_C_chosen,yes
1524341506,bc61dbe2bdf49bda680b129db4c323f5,Form,9,0,high,NULL,no_one_chosen,no
1524341506,bc61dbe2bdf49bda680b129db4c323f5,Form,9,0,high,NULL,_REACTION_TIME_,7733
1524341506,bc61dbe2bdf49bda680b129db4c323f5,Form,17,0,low,NULL,answers_reported,placeholderBrother 1 says%2C "Stalls C%2C D%2C A%2C F and B."%2CBrother 2 says%2C "Stall C."%2CBrother 3 says%2C "Stalls A and B."
1524341506,bc61dbe2bdf49bda680b129db4c323f5,Form,17,0,low,NULL,brother_A_chosen,no
1524341506,bc61dbe2bdf49bda680b129db4c323f5,Form,17,0,low,NULL,brother_B_chosen,yes
1524341506,bc61dbe2bdf49bda680b129db4c323f5,Form,17,0,low,NULL,brother_C_chosen,no
1524341506,bc61dbe2bdf49bda680b129db4c323f5,Form,17,0,low,NULL,no_one_chosen,no
1524341506,bc61dbe2bdf49bda680b129db4c323f5,Form,17,0,low,NULL,_REACTION_TIME_,2942
1524341506,bc61dbe2bdf49bda680b129db4c323f5,Form,23,0,nst,NULL,NST_2a_chosen,yes
1524341506,bc61dbe2bdf49bda680b129db4c323f5,Form,23,0,nst,NULL,NST_2b_chosen,no
1524341506,bc61dbe2bdf49bda680b129db4c323f5,Form,23,0,nst,NULL,NST_2c_chosen,no
1524341506,bc61dbe2bdf49bda680b129db4c323f5,Form,23,0,nst,NULL,NST_2d_chosen,no
1524341506,bc61dbe2bdf49bda680b129db4c323f5,Form,23,0,nst,NULL,NST_2e_chosen,no
1524341506,bc61dbe2bdf49bda680b129db4c323f5,Form,23,0,nst,NULL,_REACTION_TIME_,3544
1524341506,bc61dbe2bdf49bda680b129db4c323f5,Form,11,0,high,NULL,answers_reported,placeholderAdviser 1 says%2C "Store E."%2CAdviser 2 says%2C "Store F."%2CAdviser 3 says%2C "Store C."
1524341506,bc61dbe2bdf49bda680b129db4c323f5,Form,11,0,high,NULL,terrorism_advisor_A_chosen,no
1524341506,bc61dbe2bdf49bda680b129db4c323f5,Form,11,0,high,NULL,terrorism_advisor_B_chosen,no
1524341506,bc61dbe2bdf49bda680b129db4c323f5,Form,11,0,high,NULL,terrorism_advisor_C_chosen,yes
1524341506,bc61dbe2bdf49bda680b129db4c323f5,Form,11,0,high,NULL,no_one_chosen,no
1524341506,bc61dbe2bdf49bda680b129db4c323f5,Form,11,0,high,NULL,_REACTION_TIME_,4358
1524341506,bc61dbe2bdf49bda680b129db4c323f5,Form,21,0,control,NULL,how_guest_A_chosen,no
1524341506,bc61dbe2bdf49bda680b129db4c323f5,Form,21,0,control,NULL,how_guest_B_chosen,no
1524341506,bc61dbe2bdf49bda680b129db4c323f5,Form,21,0,control,NULL,how_guest_C_chosen,yes
1524341506,bc61dbe2bdf49bda680b129db4c323f5,Form,21,0,control,NULL,none_chosen,no
1524341506,bc61dbe2bdf49bda680b129db4c323f5,Form,21,0,control,NULL,_REACTION_TIME_,6626
1524341506,bc61dbe2bdf49bda680b129db4c323f5,Form,15,0,low,NULL,answers_reported,placeholderClassmate 1 says%2C "Cafe A."%2CClassmate 2 says%2C "Cafes E and B."%2CClassmate 3 says%2C "Cafes E%2C B%2C F%2C C and D."
1524341506,bc61dbe2bdf49bda680b129db4c323f5,Form,15,0,low,NULL,coffee_classmate_A_chosen,no
1524341506,bc61dbe2bdf49bda680b129db4c323f5,Form,15,0,low,NULL,coffee_classmate_B_chosen,yes
1524341506,bc61dbe2bdf49bda680b129db4c323f5,Form,15,0,low,NULL,coffee_classmate_C_chosen,no
1524341506,bc61dbe2bdf49bda680b129db4c323f5,Form,15,0,low,NULL,no_one_chosen,no
1524341506,bc61dbe2bdf49bda680b129db4c323f5,Form,15,0,low,NULL,_REACTION_TIME_,4630
1524341506,bc61dbe2bdf49bda680b129db4c323f5,Form,8,0,high,NULL,answers_reported,placeholderInspector 1 says%2C "Restaurant E."%2CInspector 2 says%2C "Restaurants A and B."%2CInspector 3 says%2C "Restaurant F."
1524341506,bc61dbe2bdf49bda680b129db4c323f5,Form,8,0,high,NULL,inspector_A_chosen,no
1524341506,bc61dbe2bdf49bda680b129db4c323f5,Form,8,0,high,NULL,inspector_B_chosen,yes
1524341506,bc61dbe2bdf49bda680b129db4c323f5,Form,8,0,high,NULL,inspector_C_chosen,no
1524341506,bc61dbe2bdf49bda680b129db4c323f5,Form,8,0,high,NULL,no_one_chosen,no
1524341506,bc61dbe2bdf49bda680b129db4c323f5,Form,8,0,high,NULL,_REACTION_TIME_,2493
1524341506,bc61dbe2bdf49bda680b129db4c323f5,Form,25,0,nst,NULL,NST_4a_chosen,yes
1524341506,bc61dbe2bdf49bda680b129db4c323f5,Form,25,0,nst,NULL,NST_4b_chosen,no
1524341506,bc61dbe2bdf49bda680b129db4c323f5,Form,25,0,nst,NULL,_REACTION_TIME_,7223
1524341506,bc61dbe2bdf49bda680b129db4c323f5,Form,19,0,control,NULL,what_A_chosen,no
1524341506,bc61dbe2bdf49bda680b129db4c323f5,Form,19,0,control,NULL,what_B_chosen,no
1524341506,bc61dbe2bdf49bda680b129db4c323f5,Form,19,0,control,NULL,what_C_chosen,yes
1524341506,bc61dbe2bdf49bda680b129db4c323f5,Form,19,0,control,NULL,none_chosen,no
1524341506,bc61dbe2bdf49bda680b129db4c323f5,Form,19,0,control,NULL,_REACTION_TIME_,8866
1524341506,bc61dbe2bdf49bda680b129db4c323f5,Form,6,0,exit_quest,NULL,know_conditons,yes
1524341506,bc61dbe2bdf49bda680b129db4c323f5,Form,6,0,exit_quest,NULL,know_conditons,yes
1524341506,bc61dbe2bdf49bda680b129db4c323f5,Form,6,0,exit_quest,NULL,difficult,yes
1524341506,bc61dbe2bdf49bda680b129db4c323f5,Form,6,0,exit_quest,NULL,anything_else,good thing
1524341506,bc61dbe2bdf49bda680b129db4c323f5,Form,6,0,exit_quest,NULL,dummy_checkbox_,yes
1524341506,bc61dbe2bdf49bda680b129db4c323f5,Form,6,0,exit_quest,NULL,_REACTION_TIME_,125893
#
# Results on Saturday April 21 2018 20:14:48 UTC.
# USER AGENT: Mozilla/5.0 (Linux; Android 8.0.0; SM-G950U Build/R16NW) AppleWebKit/537.36 (KHTML, like Gecko) Chrome/65.0.3325.109 Mobile Safari/537.36
# Design number was non-random = 2
#
# Columns below this comment are as follows:
# 1. Time results were received.
# 2. MD5 hash of participant's IP address.
# 3. Controller name.
# 4. Item number.
# 5. Element number.
# 6. Type.
# 7. Group.
# 8. Field name.
# 9. Field value.
1524341689,9df07eebeec871596a1687d7788537ed,Form,2,0,consent,NULL,subject_id,A3BS3RZIWQMB9G
1524341689,9df07eebeec871596a1687d7788537ed,Form,2,0,consent,NULL,native_lang,English 
1524341689,9df07eebeec871596a1687d7788537ed,Form,2,0,consent,NULL,age,42
1524341689,9df07eebeec871596a1687d7788537ed,Form,2,0,consent,NULL,consent_checkbox_,yes
1524341689,9df07eebeec871596a1687d7788537ed,Form,2,0,consent,NULL,dummy_checkbox_,yes
1524341689,9df07eebeec871596a1687d7788537ed,Form,2,0,consent,NULL,sex,male
1524341689,9df07eebeec871596a1687d7788537ed,Form,2,0,consent,NULL,_REACTION_TIME_,30087
1524341689,9df07eebeec871596a1687d7788537ed,Form,1,0,instructions,NULL,dummy_checkbox_,yes
1524341689,9df07eebeec871596a1687d7788537ed,Form,1,0,instructions,NULL,_REACTION_TIME_,7638
1524341689,9df07eebeec871596a1687d7788537ed,Form,3,0,train,NULL,train_f_A_chosen,no
1524341689,9df07eebeec871596a1687d7788537ed,Form,3,0,train,NULL,train_f_B_chosen,no
1524341689,9df07eebeec871596a1687d7788537ed,Form,3,0,train,NULL,train_f_C_chosen,no
1524341689,9df07eebeec871596a1687d7788537ed,Form,3,0,train,NULL,none_chosen,yes
1524341689,9df07eebeec871596a1687d7788537ed,Form,3,0,train,NULL,_REACTION_TIME_,36323
1524341689,9df07eebeec871596a1687d7788537ed,Form,4,0,train,NULL,train_m_A_chosen,no
1524341689,9df07eebeec871596a1687d7788537ed,Form,4,0,train,NULL,train_m_B_chosen,yes
1524341689,9df07eebeec871596a1687d7788537ed,Form,4,0,train,NULL,train_m_C_chosen,no
1524341689,9df07eebeec871596a1687d7788537ed,Form,4,0,train,NULL,none_chosen,no
1524341689,9df07eebeec871596a1687d7788537ed,Form,4,0,train,NULL,_REACTION_TIME_,28745
1524341689,9df07eebeec871596a1687d7788537ed,Form,5,0,train_end,NULL,dummy_checkbox_,yes
1524341689,9df07eebeec871596a1687d7788537ed,Form,5,0,train_end,NULL,_REACTION_TIME_,2334
1524341689,9df07eebeec871596a1687d7788537ed,Form,15,0,low,NULL,answers_reported,placeholderClassmate 1 says%2C "Cafes E%2C B%2C F%2C C and D."%2CClassmate 2 says%2C "Cafe E."%2CClassmate 3 says%2C "Cafe D."
1524341689,9df07eebeec871596a1687d7788537ed,Form,15,0,low,NULL,coffee_classmate_A_chosen,yes
1524341689,9df07eebeec871596a1687d7788537ed,Form,15,0,low,NULL,coffee_classmate_B_chosen,no
1524341689,9df07eebeec871596a1687d7788537ed,Form,15,0,low,NULL,coffee_classmate_C_chosen,no
1524341689,9df07eebeec871596a1687d7788537ed,Form,15,0,low,NULL,no_one_chosen,no
1524341689,9df07eebeec871596a1687d7788537ed,Form,15,0,low,NULL,_REACTION_TIME_,42161
1524341689,9df07eebeec871596a1687d7788537ed,Form,8,0,high,NULL,answers_reported,placeholderInspector 1 says%2C "Restaurants C and E."%2CInspector 2 says%2C "Restaurants A and B."%2CInspector 3 says%2C "Restaurant E."
1524341689,9df07eebeec871596a1687d7788537ed,Form,8,0,high,NULL,inspector_A_chosen,yes
1524341689,9df07eebeec871596a1687d7788537ed,Form,8,0,high,NULL,inspector_B_chosen,no
1524341689,9df07eebeec871596a1687d7788537ed,Form,8,0,high,NULL,inspector_C_chosen,no
1524341689,9df07eebeec871596a1687d7788537ed,Form,8,0,high,NULL,no_one_chosen,no
1524341689,9df07eebeec871596a1687d7788537ed,Form,8,0,high,NULL,_REACTION_TIME_,50168
1524341689,9df07eebeec871596a1687d7788537ed,Form,16,0,low,NULL,answers_reported,placeholderCoworker 1 says%2C "Studios F%2C E%2C D%2C C and B."%2CCoworker 2 says%2C "Studio A."%2CCoworker 3 says%2C "Studios F and E."
1524341689,9df07eebeec871596a1687d7788537ed,Form,16,0,low,NULL,yoga_coworker_A_chosen,yes
1524341689,9df07eebeec871596a1687d7788537ed,Form,16,0,low,NULL,yoga_coworker_B_chosen,no
1524341689,9df07eebeec871596a1687d7788537ed,Form,16,0,low,NULL,yoga_coworker_C_chosen,yes
1524341689,9df07eebeec871596a1687d7788537ed,Form,16,0,low,NULL,no_one_chosen,no
1524341689,9df07eebeec871596a1687d7788537ed,Form,16,0,low,NULL,_REACTION_TIME_,25191
1524341689,9df07eebeec871596a1687d7788537ed,Form,25,0,nst,NULL,NST_4a_chosen,no
1524341689,9df07eebeec871596a1687d7788537ed,Form,25,0,nst,NULL,NST_4b_chosen,yes
1524341689,9df07eebeec871596a1687d7788537ed,Form,25,0,nst,NULL,_REACTION_TIME_,9249
1524341689,9df07eebeec871596a1687d7788537ed,Form,19,0,control,NULL,what_A_chosen,no
1524341689,9df07eebeec871596a1687d7788537ed,Form,19,0,control,NULL,what_B_chosen,yes
1524341689,9df07eebeec871596a1687d7788537ed,Form,19,0,control,NULL,what_C_chosen,yes
1524341689,9df07eebeec871596a1687d7788537ed,Form,19,0,control,NULL,none_chosen,no
1524341689,9df07eebeec871596a1687d7788537ed,Form,19,0,control,NULL,_REACTION_TIME_,15025
1524341689,9df07eebeec871596a1687d7788537ed,Form,11,0,high,NULL,answers_reported,placeholderAdviser 1 says%2C "Store F."%2CAdviser 2 says%2C "Stores E%2C B%2C A%2C D%2C and F."%2CAdviser 3 says%2C "Stores A and F."
1524341689,9df07eebeec871596a1687d7788537ed,Form,11,0,high,NULL,terrorism_advisor_A_chosen,yes
1524341689,9df07eebeec871596a1687d7788537ed,Form,11,0,high,NULL,terrorism_advisor_B_chosen,yes
1524341689,9df07eebeec871596a1687d7788537ed,Form,11,0,high,NULL,terrorism_advisor_C_chosen,yes
1524341689,9df07eebeec871596a1687d7788537ed,Form,11,0,high,NULL,no_one_chosen,no
1524341689,9df07eebeec871596a1687d7788537ed,Form,11,0,high,NULL,_REACTION_TIME_,34168
1524341689,9df07eebeec871596a1687d7788537ed,Form,13,0,low,NULL,answers_reported,placeholderCousin 1 says%2C "Locations D and F."%2CCousin 2 says%2C "Locations A%2C D%2C E%2C and F."%2CCousin 3 says%2C "Location B."
1524341689,9df07eebeec871596a1687d7788537ed,Form,13,0,low,NULL,pic_cousin_A_chosen,yes
1524341689,9df07eebeec871596a1687d7788537ed,Form,13,0,low,NULL,pic_cousin_B_chosen,yes
1524341689,9df07eebeec871596a1687d7788537ed,Form,13,0,low,NULL,pic_cousin_C_chosen,no
1524341689,9df07eebeec871596a1687d7788537ed,Form,13,0,low,NULL,no_one_chosen,no
1524341689,9df07eebeec871596a1687d7788537ed,Form,13,0,low,NULL,_REACTION_TIME_,16630
1524341689,9df07eebeec871596a1687d7788537ed,Form,24,0,nst,NULL,NST_3a_chosen,yes
1524341689,9df07eebeec871596a1687d7788537ed,Form,24,0,nst,NULL,NST_3b_chosen,no
1524341689,9df07eebeec871596a1687d7788537ed,Form,24,0,nst,NULL,NST_3c_chosen,no
1524341689,9df07eebeec871596a1687d7788537ed,Form,24,0,nst,NULL,NST_3d_chosen,yes
1524341689,9df07eebeec871596a1687d7788537ed,Form,24,0,nst,NULL,NST_3e_chosen,no
1524341689,9df07eebeec871596a1687d7788537ed,Form,24,0,nst,NULL,_REACTION_TIME_,16685
1524341689,9df07eebeec871596a1687d7788537ed,Form,20,0,control,NULL,when_A_chosen,yes
1524341689,9df07eebeec871596a1687d7788537ed,Form,20,0,control,NULL,when_B_chosen,no
1524341689,9df07eebeec871596a1687d7788537ed,Form,20,0,control,NULL,when_C_chosen,no
1524341689,9df07eebeec871596a1687d7788537ed,Form,20,0,control,NULL,none_chosen,no
1524341689,9df07eebeec871596a1687d7788537ed,Form,20,0,control,NULL,_REACTION_TIME_,38464
1524341689,9df07eebeec871596a1687d7788537ed,Form,9,0,high,NULL,answers_reported,placeholderFirefighter 1 says%2C "The sixth floor."%2CFirefighter 2 says%2C "The fifth%2C second%2C fourth%2C third and sixth floors."%2CFirefighter 3 says%2C "The fourth and sixth floors."
1524341689,9df07eebeec871596a1687d7788537ed,Form,9,0,high,NULL,firefighter_A_chosen,yes
1524341689,9df07eebeec871596a1687d7788537ed,Form,9,0,high,NULL,firefighter_B_chosen,yes
1524341689,9df07eebeec871596a1687d7788537ed,Form,9,0,high,NULL,firefighter_C_chosen,yes
1524341689,9df07eebeec871596a1687d7788537ed,Form,9,0,high,NULL,no_one_chosen,no
1524341689,9df07eebeec871596a1687d7788537ed,Form,9,0,high,NULL,_REACTION_TIME_,23955
1524341689,9df07eebeec871596a1687d7788537ed,Form,14,0,low,NULL,answers_reported,placeholderFriend 1 says%2C "Diners A and E."%2CFriend 2 says%2C "Diners C%2C F%2C A%2C D%2C and E."%2CFriend 3 says%2C "Diners C and F."
1524341689,9df07eebeec871596a1687d7788537ed,Form,14,0,low,NULL,la_friend_A_chosen,yes
1524341689,9df07eebeec871596a1687d7788537ed,Form,14,0,low,NULL,la_friend_B_chosen,yes
1524341689,9df07eebeec871596a1687d7788537ed,Form,14,0,low,NULL,la_friend_C_chosen,yes
1524341689,9df07eebeec871596a1687d7788537ed,Form,14,0,low,NULL,no_one_chosen,no
1524341689,9df07eebeec871596a1687d7788537ed,Form,14,0,low,NULL,_REACTION_TIME_,31119
1524341689,9df07eebeec871596a1687d7788537ed,Form,10,0,high,NULL,answers_reported,placeholderOperative 1 says%2C "The West district."%2COperative 2 says%2C "The North district."%2COperative 3 says%2C "The Northeast and Southwest districts."
1524341689,9df07eebeec871596a1687d7788537ed,Form,10,0,high,NULL,operative_A_chosen,yes
1524341689,9df07eebeec871596a1687d7788537ed,Form,10,0,high,NULL,operative_B_chosen,no
1524341689,9df07eebeec871596a1687d7788537ed,Form,10,0,high,NULL,operative_C_chosen,yes
1524341689,9df07eebeec871596a1687d7788537ed,Form,10,0,high,NULL,no_one_chosen,no
1524341689,9df07eebeec871596a1687d7788537ed,Form,10,0,high,NULL,_REACTION_TIME_,28953
1524341689,9df07eebeec871596a1687d7788537ed,Form,22,0,nst,NULL,NST_1a_chosen,yes
1524341689,9df07eebeec871596a1687d7788537ed,Form,22,0,nst,NULL,NST_1b_chosen,no
1524341689,9df07eebeec871596a1687d7788537ed,Form,22,0,nst,NULL,NST_1c_chosen,no
1524341689,9df07eebeec871596a1687d7788537ed,Form,22,0,nst,NULL,NST_1d_chosen,yes
1524341689,9df07eebeec871596a1687d7788537ed,Form,22,0,nst,NULL,_REACTION_TIME_,12687
1524341689,9df07eebeec871596a1687d7788537ed,Form,21,0,control,NULL,how_guest_A_chosen,yes
1524341689,9df07eebeec871596a1687d7788537ed,Form,21,0,control,NULL,how_guest_B_chosen,yes
1524341689,9df07eebeec871596a1687d7788537ed,Form,21,0,control,NULL,how_guest_C_chosen,yes
1524341689,9df07eebeec871596a1687d7788537ed,Form,21,0,control,NULL,none_chosen,no
1524341689,9df07eebeec871596a1687d7788537ed,Form,21,0,control,NULL,_REACTION_TIME_,32072
1524341689,9df07eebeec871596a1687d7788537ed,Form,17,0,low,NULL,answers_reported,placeholderBrother 1 says%2C "Stalls C%2C D%2C A%2C F and B."%2CBrother 2 says%2C "Stall E."%2CBrother 3 says%2C "Stalls C and D."
1524341689,9df07eebeec871596a1687d7788537ed,Form,17,0,low,NULL,brother_A_chosen,yes
1524341689,9df07eebeec871596a1687d7788537ed,Form,17,0,low,NULL,brother_B_chosen,no
1524341689,9df07eebeec871596a1687d7788537ed,Form,17,0,low,NULL,brother_C_chosen,yes
1524341689,9df07eebeec871596a1687d7788537ed,Form,17,0,low,NULL,no_one_chosen,no
1524341689,9df07eebeec871596a1687d7788537ed,Form,17,0,low,NULL,_REACTION_TIME_,16989
1524341689,9df07eebeec871596a1687d7788537ed,Form,12,0,high,NULL,answers_reported,placeholderInvestigator 1 says%2C "Places B and E."%2CInvestigator 2 says%2C "Place E."%2CInvestigator 3 says%2C "Places F and A."
1524341689,9df07eebeec871596a1687d7788537ed,Form,12,0,high,NULL,fbi_investigator_A_chosen,yes
1524341689,9df07eebeec871596a1687d7788537ed,Form,12,0,high,NULL,fbi_investigator_B_chosen,no
1524341689,9df07eebeec871596a1687d7788537ed,Form,12,0,high,NULL,fbi_investigator_C_chosen,yes
1524341689,9df07eebeec871596a1687d7788537ed,Form,12,0,high,NULL,no_one_chosen,no
1524341689,9df07eebeec871596a1687d7788537ed,Form,12,0,high,NULL,_REACTION_TIME_,13352
1524341689,9df07eebeec871596a1687d7788537ed,Form,23,0,nst,NULL,NST_2a_chosen,no
1524341689,9df07eebeec871596a1687d7788537ed,Form,23,0,nst,NULL,NST_2b_chosen,no
1524341689,9df07eebeec871596a1687d7788537ed,Form,23,0,nst,NULL,NST_2c_chosen,no
1524341689,9df07eebeec871596a1687d7788537ed,Form,23,0,nst,NULL,NST_2d_chosen,no
1524341689,9df07eebeec871596a1687d7788537ed,Form,23,0,nst,NULL,NST_2e_chosen,yes
1524341689,9df07eebeec871596a1687d7788537ed,Form,23,0,nst,NULL,_REACTION_TIME_,11647
1524341689,9df07eebeec871596a1687d7788537ed,Form,18,0,control,NULL,why_A_chosen,yes
1524341689,9df07eebeec871596a1687d7788537ed,Form,18,0,control,NULL,why_B_chosen,yes
1524341689,9df07eebeec871596a1687d7788537ed,Form,18,0,control,NULL,why_C_chosen,no
1524341689,9df07eebeec871596a1687d7788537ed,Form,18,0,control,NULL,none_chosen,no
1524341689,9df07eebeec871596a1687d7788537ed,Form,18,0,control,NULL,_REACTION_TIME_,25109
1524341689,9df07eebeec871596a1687d7788537ed,Form,6,0,exit_quest,NULL,know_conditons,The coffee shop 
1524341689,9df07eebeec871596a1687d7788537ed,Form,6,0,exit_quest,NULL,know_conditons,The coffee shop or grocery store 
1524341689,9df07eebeec871596a1687d7788537ed,Form,6,0,exit_quest,NULL,difficult,No
1524341689,9df07eebeec871596a1687d7788537ed,Form,6,0,exit_quest,NULL,anything_else,Nope 
1524341689,9df07eebeec871596a1687d7788537ed,Form,6,0,exit_quest,NULL,dummy_checkbox_,yes
1524341689,9df07eebeec871596a1687d7788537ed,Form,6,0,exit_quest,NULL,_REACTION_TIME_,45617
#
# Results on Saturday April 21 2018 20:16:23 UTC.
# USER AGENT: Mozilla/5.0 (Windows NT 10.0; Win64; x64; rv:59.0) Gecko/20100101 Firefox/59.0
# Design number was non-random = 2
#
# Columns below this comment are as follows:
# 1. Time results were received.
# 2. MD5 hash of participant's IP address.
# 3. Controller name.
# 4. Item number.
# 5. Element number.
# 6. Type.
# 7. Group.
# 8. Field name.
# 9. Field value.
1524341784,8ed45936909027a0aa43cb01b02cd524,Form,2,0,consent,NULL,subject_id,AKMQH2MGTUWO9
1524341784,8ed45936909027a0aa43cb01b02cd524,Form,2,0,consent,NULL,native_lang,English
1524341784,8ed45936909027a0aa43cb01b02cd524,Form,2,0,consent,NULL,age,22
1524341784,8ed45936909027a0aa43cb01b02cd524,Form,2,0,consent,NULL,consent_checkbox_,yes
1524341784,8ed45936909027a0aa43cb01b02cd524,Form,2,0,consent,NULL,dummy_checkbox_,yes
1524341784,8ed45936909027a0aa43cb01b02cd524,Form,2,0,consent,NULL,sex,male
1524341784,8ed45936909027a0aa43cb01b02cd524,Form,2,0,consent,NULL,_REACTION_TIME_,21022
1524341784,8ed45936909027a0aa43cb01b02cd524,Form,1,0,instructions,NULL,dummy_checkbox_,yes
1524341784,8ed45936909027a0aa43cb01b02cd524,Form,1,0,instructions,NULL,_REACTION_TIME_,11062
1524341784,8ed45936909027a0aa43cb01b02cd524,Form,4,0,train,NULL,train_m_A_chosen,no
1524341784,8ed45936909027a0aa43cb01b02cd524,Form,4,0,train,NULL,train_m_B_chosen,no
1524341784,8ed45936909027a0aa43cb01b02cd524,Form,4,0,train,NULL,train_m_C_chosen,yes
1524341784,8ed45936909027a0aa43cb01b02cd524,Form,4,0,train,NULL,none_chosen,no
1524341784,8ed45936909027a0aa43cb01b02cd524,Form,4,0,train,NULL,_REACTION_TIME_,37292
1524341784,8ed45936909027a0aa43cb01b02cd524,Form,3,0,train,NULL,train_f_A_chosen,no
1524341784,8ed45936909027a0aa43cb01b02cd524,Form,3,0,train,NULL,train_f_B_chosen,no
1524341784,8ed45936909027a0aa43cb01b02cd524,Form,3,0,train,NULL,train_f_C_chosen,no
1524341784,8ed45936909027a0aa43cb01b02cd524,Form,3,0,train,NULL,none_chosen,yes
1524341784,8ed45936909027a0aa43cb01b02cd524,Form,3,0,train,NULL,_REACTION_TIME_,29058
1524341784,8ed45936909027a0aa43cb01b02cd524,Form,5,0,train_end,NULL,dummy_checkbox_,yes
1524341784,8ed45936909027a0aa43cb01b02cd524,Form,5,0,train_end,NULL,_REACTION_TIME_,1734
1524341784,8ed45936909027a0aa43cb01b02cd524,Form,14,0,low,NULL,answers_reported,placeholderFriend 1 says%2C "Diner C."%2CFriend 2 says%2C "Diners C and F."%2CFriend 3 says%2C "Diners A and E."
1524341784,8ed45936909027a0aa43cb01b02cd524,Form,14,0,low,NULL,la_friend_A_chosen,yes
1524341784,8ed45936909027a0aa43cb01b02cd524,Form,14,0,low,NULL,la_friend_B_chosen,no
1524341784,8ed45936909027a0aa43cb01b02cd524,Form,14,0,low,NULL,la_friend_C_chosen,no
1524341784,8ed45936909027a0aa43cb01b02cd524,Form,14,0,low,NULL,no_one_chosen,no
1524341784,8ed45936909027a0aa43cb01b02cd524,Form,14,0,low,NULL,_REACTION_TIME_,37324
1524341784,8ed45936909027a0aa43cb01b02cd524,Form,8,0,high,NULL,answers_reported,placeholderInspector 1 says%2C "Restaurant E."%2CInspector 2 says%2C "Restaurant F."%2CInspector 3 says%2C "Restaurants A and B."
1524341784,8ed45936909027a0aa43cb01b02cd524,Form,8,0,high,NULL,inspector_A_chosen,yes
1524341784,8ed45936909027a0aa43cb01b02cd524,Form,8,0,high,NULL,inspector_B_chosen,no
1524341784,8ed45936909027a0aa43cb01b02cd524,Form,8,0,high,NULL,inspector_C_chosen,yes
1524341784,8ed45936909027a0aa43cb01b02cd524,Form,8,0,high,NULL,no_one_chosen,no
1524341784,8ed45936909027a0aa43cb01b02cd524,Form,8,0,high,NULL,_REACTION_TIME_,45584
1524341784,8ed45936909027a0aa43cb01b02cd524,Form,22,0,nst,NULL,NST_1a_chosen,no
1524341784,8ed45936909027a0aa43cb01b02cd524,Form,22,0,nst,NULL,NST_1b_chosen,no
1524341784,8ed45936909027a0aa43cb01b02cd524,Form,22,0,nst,NULL,NST_1c_chosen,no
1524341784,8ed45936909027a0aa43cb01b02cd524,Form,22,0,nst,NULL,NST_1d_chosen,yes
1524341784,8ed45936909027a0aa43cb01b02cd524,Form,22,0,nst,NULL,_REACTION_TIME_,13314
1524341784,8ed45936909027a0aa43cb01b02cd524,Form,15,0,low,NULL,answers_reported,placeholderClassmate 1 says%2C "Cafe D."%2CClassmate 2 says%2C "Cafe E."%2CClassmate 3 says%2C "Cafes E and B."
1524341784,8ed45936909027a0aa43cb01b02cd524,Form,15,0,low,NULL,coffee_classmate_A_chosen,yes
1524341784,8ed45936909027a0aa43cb01b02cd524,Form,15,0,low,NULL,coffee_classmate_B_chosen,yes
1524341784,8ed45936909027a0aa43cb01b02cd524,Form,15,0,low,NULL,coffee_classmate_C_chosen,yes
1524341784,8ed45936909027a0aa43cb01b02cd524,Form,15,0,low,NULL,no_one_chosen,no
1524341784,8ed45936909027a0aa43cb01b02cd524,Form,15,0,low,NULL,_REACTION_TIME_,44372
1524341784,8ed45936909027a0aa43cb01b02cd524,Form,20,0,control,NULL,when_A_chosen,no
1524341784,8ed45936909027a0aa43cb01b02cd524,Form,20,0,control,NULL,when_B_chosen,no
1524341784,8ed45936909027a0aa43cb01b02cd524,Form,20,0,control,NULL,when_C_chosen,no
1524341784,8ed45936909027a0aa43cb01b02cd524,Form,20,0,control,NULL,none_chosen,yes
1524341784,8ed45936909027a0aa43cb01b02cd524,Form,20,0,control,NULL,_REACTION_TIME_,31554
1524341784,8ed45936909027a0aa43cb01b02cd524,Form,9,0,high,NULL,answers_reported,placeholderFirefighter 1 says%2C "The fifth floor."%2CFirefighter 2 says%2C "The sixth floor."%2CFirefighter 3 says%2C "The fourth and sixth floors."
1524341784,8ed45936909027a0aa43cb01b02cd524,Form,9,0,high,NULL,firefighter_A_chosen,yes
1524341784,8ed45936909027a0aa43cb01b02cd524,Form,9,0,high,NULL,firefighter_B_chosen,yes
1524341784,8ed45936909027a0aa43cb01b02cd524,Form,9,0,high,NULL,firefighter_C_chosen,yes
1524341784,8ed45936909027a0aa43cb01b02cd524,Form,9,0,high,NULL,no_one_chosen,yes
1524341784,8ed45936909027a0aa43cb01b02cd524,Form,9,0,high,NULL,_REACTION_TIME_,47724
1524341784,8ed45936909027a0aa43cb01b02cd524,Form,24,0,nst,NULL,NST_3a_chosen,yes
1524341784,8ed45936909027a0aa43cb01b02cd524,Form,24,0,nst,NULL,NST_3b_chosen,no
1524341784,8ed45936909027a0aa43cb01b02cd524,Form,24,0,nst,NULL,NST_3c_chosen,no
1524341784,8ed45936909027a0aa43cb01b02cd524,Form,24,0,nst,NULL,NST_3d_chosen,no
1524341784,8ed45936909027a0aa43cb01b02cd524,Form,24,0,nst,NULL,NST_3e_chosen,no
1524341784,8ed45936909027a0aa43cb01b02cd524,Form,24,0,nst,NULL,_REACTION_TIME_,17780
1524341784,8ed45936909027a0aa43cb01b02cd524,Form,16,0,low,NULL,answers_reported,placeholderCoworker 1 says%2C "Studios C and B."%2CCoworker 2 says%2C "Studios F and E."%2CCoworker 3 says%2C "Studio B."
1524341784,8ed45936909027a0aa43cb01b02cd524,Form,16,0,low,NULL,yoga_coworker_A_chosen,yes
1524341784,8ed45936909027a0aa43cb01b02cd524,Form,16,0,low,NULL,yoga_coworker_B_chosen,yes
1524341784,8ed45936909027a0aa43cb01b02cd524,Form,16,0,low,NULL,yoga_coworker_C_chosen,yes
1524341784,8ed45936909027a0aa43cb01b02cd524,Form,16,0,low,NULL,no_one_chosen,no
1524341784,8ed45936909027a0aa43cb01b02cd524,Form,16,0,low,NULL,_REACTION_TIME_,31150
1524341784,8ed45936909027a0aa43cb01b02cd524,Form,18,0,control,NULL,why_A_chosen,yes
1524341784,8ed45936909027a0aa43cb01b02cd524,Form,18,0,control,NULL,why_B_chosen,no
1524341784,8ed45936909027a0aa43cb01b02cd524,Form,18,0,control,NULL,why_C_chosen,no
1524341784,8ed45936909027a0aa43cb01b02cd524,Form,18,0,control,NULL,none_chosen,no
1524341784,8ed45936909027a0aa43cb01b02cd524,Form,18,0,control,NULL,_REACTION_TIME_,20144
1524341784,8ed45936909027a0aa43cb01b02cd524,Form,12,0,high,NULL,answers_reported,placeholderInvestigator 1 says%2C "Place D."%2CInvestigator 2 says%2C "Place F."%2CInvestigator 3 says%2C "Places F and A."
1524341784,8ed45936909027a0aa43cb01b02cd524,Form,12,0,high,NULL,fbi_investigator_A_chosen,no
1524341784,8ed45936909027a0aa43cb01b02cd524,Form,12,0,high,NULL,fbi_investigator_B_chosen,yes
1524341784,8ed45936909027a0aa43cb01b02cd524,Form,12,0,high,NULL,fbi_investigator_C_chosen,yes
1524341784,8ed45936909027a0aa43cb01b02cd524,Form,12,0,high,NULL,no_one_chosen,no
1524341784,8ed45936909027a0aa43cb01b02cd524,Form,12,0,high,NULL,_REACTION_TIME_,26572
1524341784,8ed45936909027a0aa43cb01b02cd524,Form,13,0,low,NULL,answers_reported,placeholderCousin 1 says%2C "Location B."%2CCousin 2 says%2C "Locations D and F."%2CCousin 3 says%2C "Locations A and D."
1524341784,8ed45936909027a0aa43cb01b02cd524,Form,13,0,low,NULL,pic_cousin_A_chosen,no
1524341784,8ed45936909027a0aa43cb01b02cd524,Form,13,0,low,NULL,pic_cousin_B_chosen,yes
1524341784,8ed45936909027a0aa43cb01b02cd524,Form,13,0,low,NULL,pic_cousin_C_chosen,yes
1524341784,8ed45936909027a0aa43cb01b02cd524,Form,13,0,low,NULL,no_one_chosen,no
1524341784,8ed45936909027a0aa43cb01b02cd524,Form,13,0,low,NULL,_REACTION_TIME_,24808
1524341784,8ed45936909027a0aa43cb01b02cd524,Form,25,0,nst,NULL,NST_4a_chosen,no
1524341784,8ed45936909027a0aa43cb01b02cd524,Form,25,0,nst,NULL,NST_4b_chosen,yes
1524341784,8ed45936909027a0aa43cb01b02cd524,Form,25,0,nst,NULL,_REACTION_TIME_,8798
1524341784,8ed45936909027a0aa43cb01b02cd524,Form,10,0,high,NULL,answers_reported,placeholderOperative 1 says%2C "The North district."%2COperative 2 says%2C "The South and North districts."%2COperative 3 says%2C "The Northeast%2C Southwest%2C South%2C Southeast and North districts."
1524341784,8ed45936909027a0aa43cb01b02cd524,Form,10,0,high,NULL,operative_A_chosen,no
1524341784,8ed45936909027a0aa43cb01b02cd524,Form,10,0,high,NULL,operative_B_chosen,no
1524341784,8ed45936909027a0aa43cb01b02cd524,Form,10,0,high,NULL,operative_C_chosen,yes
1524341784,8ed45936909027a0aa43cb01b02cd524,Form,10,0,high,NULL,no_one_chosen,no
1524341784,8ed45936909027a0aa43cb01b02cd524,Form,10,0,high,NULL,_REACTION_TIME_,47402
1524341784,8ed45936909027a0aa43cb01b02cd524,Form,21,0,control,NULL,how_guest_A_chosen,no
1524341784,8ed45936909027a0aa43cb01b02cd524,Form,21,0,control,NULL,how_guest_B_chosen,yes
1524341784,8ed45936909027a0aa43cb01b02cd524,Form,21,0,control,NULL,how_guest_C_chosen,no
1524341784,8ed45936909027a0aa43cb01b02cd524,Form,21,0,control,NULL,none_chosen,no
1524341784,8ed45936909027a0aa43cb01b02cd524,Form,21,0,control,NULL,_REACTION_TIME_,69136
1524341784,8ed45936909027a0aa43cb01b02cd524,Form,17,0,low,NULL,answers_reported,placeholderBrother 1 says%2C "Stalls A and B."%2CBrother 2 says%2C "Stall C."%2CBrother 3 says%2C "Stall E."
1524341784,8ed45936909027a0aa43cb01b02cd524,Form,17,0,low,NULL,brother_A_chosen,yes
1524341784,8ed45936909027a0aa43cb01b02cd524,Form,17,0,low,NULL,brother_B_chosen,yes
1524341784,8ed45936909027a0aa43cb01b02cd524,Form,17,0,low,NULL,brother_C_chosen,no
1524341784,8ed45936909027a0aa43cb01b02cd524,Form,17,0,low,NULL,no_one_chosen,no
1524341784,8ed45936909027a0aa43cb01b02cd524,Form,17,0,low,NULL,_REACTION_TIME_,27912
1524341784,8ed45936909027a0aa43cb01b02cd524,Form,11,0,high,NULL,answers_reported,placeholderAdviser 1 says%2C "Store F."%2CAdviser 2 says%2C "Stores E%2C B%2C A%2C D%2C and F."%2CAdviser 3 says%2C "Store C."
1524341784,8ed45936909027a0aa43cb01b02cd524,Form,11,0,high,NULL,terrorism_advisor_A_chosen,no
1524341784,8ed45936909027a0aa43cb01b02cd524,Form,11,0,high,NULL,terrorism_advisor_B_chosen,yes
1524341784,8ed45936909027a0aa43cb01b02cd524,Form,11,0,high,NULL,terrorism_advisor_C_chosen,no
1524341784,8ed45936909027a0aa43cb01b02cd524,Form,11,0,high,NULL,no_one_chosen,no
1524341784,8ed45936909027a0aa43cb01b02cd524,Form,11,0,high,NULL,_REACTION_TIME_,21602
1524341784,8ed45936909027a0aa43cb01b02cd524,Form,23,0,nst,NULL,NST_2a_chosen,yes
1524341784,8ed45936909027a0aa43cb01b02cd524,Form,23,0,nst,NULL,NST_2b_chosen,no
1524341784,8ed45936909027a0aa43cb01b02cd524,Form,23,0,nst,NULL,NST_2c_chosen,no
1524341784,8ed45936909027a0aa43cb01b02cd524,Form,23,0,nst,NULL,NST_2d_chosen,no
1524341784,8ed45936909027a0aa43cb01b02cd524,Form,23,0,nst,NULL,NST_2e_chosen,no
1524341784,8ed45936909027a0aa43cb01b02cd524,Form,23,0,nst,NULL,_REACTION_TIME_,13772
1524341784,8ed45936909027a0aa43cb01b02cd524,Form,19,0,control,NULL,what_A_chosen,yes
1524341784,8ed45936909027a0aa43cb01b02cd524,Form,19,0,control,NULL,what_B_chosen,no
1524341784,8ed45936909027a0aa43cb01b02cd524,Form,19,0,control,NULL,what_C_chosen,no
1524341784,8ed45936909027a0aa43cb01b02cd524,Form,19,0,control,NULL,none_chosen,no
1524341784,8ed45936909027a0aa43cb01b02cd524,Form,19,0,control,NULL,_REACTION_TIME_,15914
1524341784,8ed45936909027a0aa43cb01b02cd524,Form,6,0,exit_quest,NULL,know_conditons,at Starbuck's
1524341784,8ed45936909027a0aa43cb01b02cd524,Form,6,0,exit_quest,NULL,know_conditons,at any grocery store
1524341784,8ed45936909027a0aa43cb01b02cd524,Form,6,0,exit_quest,NULL,difficult,Yes%2C it was bizarre.  Not enough information to guide you through.
1524341784,8ed45936909027a0aa43cb01b02cd524,Form,6,0,exit_quest,NULL,anything_else,N.A.
1524341784,8ed45936909027a0aa43cb01b02cd524,Form,6,0,exit_quest,NULL,dummy_checkbox_,yes
1524341784,8ed45936909027a0aa43cb01b02cd524,Form,6,0,exit_quest,NULL,_REACTION_TIME_,48790
#
# Results on Saturday April 21 2018 20:16:53 UTC.
# USER AGENT: Mozilla/5.0 (Windows NT 10.0; WOW64) AppleWebKit/537.36 (KHTML, like Gecko) Chrome/65.0.3325.181 Safari/537.36
# Design number was non-random = 2
#
# Columns below this comment are as follows:
# 1. Time results were received.
# 2. MD5 hash of participant's IP address.
# 3. Controller name.
# 4. Item number.
# 5. Element number.
# 6. Type.
# 7. Group.
# 8. Field name.
# 9. Field value.
1524341813,4b6f19e9d3b5b930487acd8cda550b78,Form,2,0,consent,NULL,subject_id,A3A8P4UR9A0DWQ
1524341813,4b6f19e9d3b5b930487acd8cda550b78,Form,2,0,consent,NULL,native_lang,english
1524341813,4b6f19e9d3b5b930487acd8cda550b78,Form,2,0,consent,NULL,age,42
1524341813,4b6f19e9d3b5b930487acd8cda550b78,Form,2,0,consent,NULL,consent_checkbox_,yes
1524341813,4b6f19e9d3b5b930487acd8cda550b78,Form,2,0,consent,NULL,dummy_checkbox_,yes
1524341813,4b6f19e9d3b5b930487acd8cda550b78,Form,2,0,consent,NULL,sex,female
1524341813,4b6f19e9d3b5b930487acd8cda550b78,Form,2,0,consent,NULL,_REACTION_TIME_,24210
1524341813,4b6f19e9d3b5b930487acd8cda550b78,Form,1,0,instructions,NULL,dummy_checkbox_,yes
1524341813,4b6f19e9d3b5b930487acd8cda550b78,Form,1,0,instructions,NULL,_REACTION_TIME_,5601
1524341813,4b6f19e9d3b5b930487acd8cda550b78,Form,3,0,train,NULL,train_f_A_chosen,no
1524341813,4b6f19e9d3b5b930487acd8cda550b78,Form,3,0,train,NULL,train_f_B_chosen,no
1524341813,4b6f19e9d3b5b930487acd8cda550b78,Form,3,0,train,NULL,train_f_C_chosen,no
1524341813,4b6f19e9d3b5b930487acd8cda550b78,Form,3,0,train,NULL,none_chosen,yes
1524341813,4b6f19e9d3b5b930487acd8cda550b78,Form,3,0,train,NULL,_REACTION_TIME_,30494
1524341813,4b6f19e9d3b5b930487acd8cda550b78,Form,4,0,train,NULL,train_m_A_chosen,no
1524341813,4b6f19e9d3b5b930487acd8cda550b78,Form,4,0,train,NULL,train_m_B_chosen,no
1524341813,4b6f19e9d3b5b930487acd8cda550b78,Form,4,0,train,NULL,train_m_C_chosen,yes
1524341813,4b6f19e9d3b5b930487acd8cda550b78,Form,4,0,train,NULL,none_chosen,no
1524341813,4b6f19e9d3b5b930487acd8cda550b78,Form,4,0,train,NULL,_REACTION_TIME_,43200
1524341813,4b6f19e9d3b5b930487acd8cda550b78,Form,5,0,train_end,NULL,dummy_checkbox_,yes
1524341813,4b6f19e9d3b5b930487acd8cda550b78,Form,5,0,train_end,NULL,_REACTION_TIME_,2071
1524341813,4b6f19e9d3b5b930487acd8cda550b78,Form,12,0,high,NULL,answers_reported,placeholderInvestigator 1 says%2C "Place E."%2CInvestigator 2 says%2C "Places B and E."%2CInvestigator 3 says%2C "Place F."
1524341813,4b6f19e9d3b5b930487acd8cda550b78,Form,12,0,high,NULL,fbi_investigator_A_chosen,no
1524341813,4b6f19e9d3b5b930487acd8cda550b78,Form,12,0,high,NULL,fbi_investigator_B_chosen,no
1524341813,4b6f19e9d3b5b930487acd8cda550b78,Form,12,0,high,NULL,fbi_investigator_C_chosen,yes
1524341813,4b6f19e9d3b5b930487acd8cda550b78,Form,12,0,high,NULL,no_one_chosen,no
1524341813,4b6f19e9d3b5b930487acd8cda550b78,Form,12,0,high,NULL,_REACTION_TIME_,30587
1524341813,4b6f19e9d3b5b930487acd8cda550b78,Form,15,0,low,NULL,answers_reported,placeholderClassmate 1 says%2C "Cafes F and D."%2CClassmate 2 says%2C "Cafes E and B."%2CClassmate 3 says%2C "Cafe E."
1524341813,4b6f19e9d3b5b930487acd8cda550b78,Form,15,0,low,NULL,coffee_classmate_A_chosen,no
1524341813,4b6f19e9d3b5b930487acd8cda550b78,Form,15,0,low,NULL,coffee_classmate_B_chosen,yes
1524341813,4b6f19e9d3b5b930487acd8cda550b78,Form,15,0,low,NULL,coffee_classmate_C_chosen,no
1524341813,4b6f19e9d3b5b930487acd8cda550b78,Form,15,0,low,NULL,no_one_chosen,no
1524341813,4b6f19e9d3b5b930487acd8cda550b78,Form,15,0,low,NULL,_REACTION_TIME_,56633
1524341813,4b6f19e9d3b5b930487acd8cda550b78,Form,11,0,high,NULL,answers_reported,placeholderAdviser 1 says%2C "Store E."%2CAdviser 2 says%2C "Stores E and B."%2CAdviser 3 says%2C "Store F."
1524341813,4b6f19e9d3b5b930487acd8cda550b78,Form,11,0,high,NULL,terrorism_advisor_A_chosen,no
1524341813,4b6f19e9d3b5b930487acd8cda550b78,Form,11,0,high,NULL,terrorism_advisor_B_chosen,yes
1524341813,4b6f19e9d3b5b930487acd8cda550b78,Form,11,0,high,NULL,terrorism_advisor_C_chosen,no
1524341813,4b6f19e9d3b5b930487acd8cda550b78,Form,11,0,high,NULL,no_one_chosen,no
1524341813,4b6f19e9d3b5b930487acd8cda550b78,Form,11,0,high,NULL,_REACTION_TIME_,25813
1524341813,4b6f19e9d3b5b930487acd8cda550b78,Form,19,0,control,NULL,what_A_chosen,yes
1524341813,4b6f19e9d3b5b930487acd8cda550b78,Form,19,0,control,NULL,what_B_chosen,no
1524341813,4b6f19e9d3b5b930487acd8cda550b78,Form,19,0,control,NULL,what_C_chosen,no
1524341813,4b6f19e9d3b5b930487acd8cda550b78,Form,19,0,control,NULL,none_chosen,no
1524341813,4b6f19e9d3b5b930487acd8cda550b78,Form,19,0,control,NULL,_REACTION_TIME_,36448
1524341813,4b6f19e9d3b5b930487acd8cda550b78,Form,24,0,nst,NULL,NST_3a_chosen,yes
1524341813,4b6f19e9d3b5b930487acd8cda550b78,Form,24,0,nst,NULL,NST_3b_chosen,no
1524341813,4b6f19e9d3b5b930487acd8cda550b78,Form,24,0,nst,NULL,NST_3c_chosen,no
1524341813,4b6f19e9d3b5b930487acd8cda550b78,Form,24,0,nst,NULL,NST_3d_chosen,yes
1524341813,4b6f19e9d3b5b930487acd8cda550b78,Form,24,0,nst,NULL,NST_3e_chosen,no
1524341813,4b6f19e9d3b5b930487acd8cda550b78,Form,24,0,nst,NULL,_REACTION_TIME_,37120
1524341813,4b6f19e9d3b5b930487acd8cda550b78,Form,17,0,low,NULL,answers_reported,placeholderBrother 1 says%2C "Stalls A and B."%2CBrother 2 says%2C "Stall C."%2CBrother 3 says%2C "Stalls C%2C D%2C A%2C F and B."
1524341813,4b6f19e9d3b5b930487acd8cda550b78,Form,17,0,low,NULL,brother_A_chosen,no
1524341813,4b6f19e9d3b5b930487acd8cda550b78,Form,17,0,low,NULL,brother_B_chosen,no
1524341813,4b6f19e9d3b5b930487acd8cda550b78,Form,17,0,low,NULL,brother_C_chosen,yes
1524341813,4b6f19e9d3b5b930487acd8cda550b78,Form,17,0,low,NULL,no_one_chosen,no
1524341813,4b6f19e9d3b5b930487acd8cda550b78,Form,17,0,low,NULL,_REACTION_TIME_,26307
1524341813,4b6f19e9d3b5b930487acd8cda550b78,Form,8,0,high,NULL,answers_reported,placeholderInspector 1 says%2C "Restaurants C and E."%2CInspector 2 says%2C "Restaurant F."%2CInspector 3 says%2C "Restaurant A."
1524341813,4b6f19e9d3b5b930487acd8cda550b78,Form,8,0,high,NULL,inspector_A_chosen,no
1524341813,4b6f19e9d3b5b930487acd8cda550b78,Form,8,0,high,NULL,inspector_B_chosen,no
1524341813,4b6f19e9d3b5b930487acd8cda550b78,Form,8,0,high,NULL,inspector_C_chosen,yes
1524341813,4b6f19e9d3b5b930487acd8cda550b78,Form,8,0,high,NULL,no_one_chosen,no
1524341813,4b6f19e9d3b5b930487acd8cda550b78,Form,8,0,high,NULL,_REACTION_TIME_,23851
1524341813,4b6f19e9d3b5b930487acd8cda550b78,Form,21,0,control,NULL,how_guest_A_chosen,no
1524341813,4b6f19e9d3b5b930487acd8cda550b78,Form,21,0,control,NULL,how_guest_B_chosen,yes
1524341813,4b6f19e9d3b5b930487acd8cda550b78,Form,21,0,control,NULL,how_guest_C_chosen,no
1524341813,4b6f19e9d3b5b930487acd8cda550b78,Form,21,0,control,NULL,none_chosen,no
1524341813,4b6f19e9d3b5b930487acd8cda550b78,Form,21,0,control,NULL,_REACTION_TIME_,36712
1524341813,4b6f19e9d3b5b930487acd8cda550b78,Form,22,0,nst,NULL,NST_1a_chosen,yes
1524341813,4b6f19e9d3b5b930487acd8cda550b78,Form,22,0,nst,NULL,NST_1b_chosen,no
1524341813,4b6f19e9d3b5b930487acd8cda550b78,Form,22,0,nst,NULL,NST_1c_chosen,no
1524341813,4b6f19e9d3b5b930487acd8cda550b78,Form,22,0,nst,NULL,NST_1d_chosen,no
1524341813,4b6f19e9d3b5b930487acd8cda550b78,Form,22,0,nst,NULL,_REACTION_TIME_,14841
1524341813,4b6f19e9d3b5b930487acd8cda550b78,Form,16,0,low,NULL,answers_reported,placeholderCoworker 1 says%2C "Studios C and B."%2CCoworker 2 says%2C "Studios F and E."%2CCoworker 3 says%2C "Studio B."
1524341813,4b6f19e9d3b5b930487acd8cda550b78,Form,16,0,low,NULL,yoga_coworker_A_chosen,no
1524341813,4b6f19e9d3b5b930487acd8cda550b78,Form,16,0,low,NULL,yoga_coworker_B_chosen,yes
1524341813,4b6f19e9d3b5b930487acd8cda550b78,Form,16,0,low,NULL,yoga_coworker_C_chosen,no
1524341813,4b6f19e9d3b5b930487acd8cda550b78,Form,16,0,low,NULL,no_one_chosen,no
1524341813,4b6f19e9d3b5b930487acd8cda550b78,Form,16,0,low,NULL,_REACTION_TIME_,22163
1524341813,4b6f19e9d3b5b930487acd8cda550b78,Form,10,0,high,NULL,answers_reported,placeholderOperative 1 says%2C "The Northeast and Southwest districts."%2COperative 2 says%2C "The South and North districts."%2COperative 3 says%2C "The Northeast district."
1524341813,4b6f19e9d3b5b930487acd8cda550b78,Form,10,0,high,NULL,operative_A_chosen,no
1524341813,4b6f19e9d3b5b930487acd8cda550b78,Form,10,0,high,NULL,operative_B_chosen,no
1524341813,4b6f19e9d3b5b930487acd8cda550b78,Form,10,0,high,NULL,operative_C_chosen,yes
1524341813,4b6f19e9d3b5b930487acd8cda550b78,Form,10,0,high,NULL,no_one_chosen,no
1524341813,4b6f19e9d3b5b930487acd8cda550b78,Form,10,0,high,NULL,_REACTION_TIME_,23088
1524341813,4b6f19e9d3b5b930487acd8cda550b78,Form,14,0,low,NULL,answers_reported,placeholderFriend 1 says%2C "Diner E."%2CFriend 2 says%2C "Diners C and F."%2CFriend 3 says%2C "Diners C%2C F%2C A%2C D%2C and E."
1524341813,4b6f19e9d3b5b930487acd8cda550b78,Form,14,0,low,NULL,la_friend_A_chosen,no
1524341813,4b6f19e9d3b5b930487acd8cda550b78,Form,14,0,low,NULL,la_friend_B_chosen,no
1524341813,4b6f19e9d3b5b930487acd8cda550b78,Form,14,0,low,NULL,la_friend_C_chosen,yes
1524341813,4b6f19e9d3b5b930487acd8cda550b78,Form,14,0,low,NULL,no_one_chosen,no
1524341813,4b6f19e9d3b5b930487acd8cda550b78,Form,14,0,low,NULL,_REACTION_TIME_,11674
1524341813,4b6f19e9d3b5b930487acd8cda550b78,Form,18,0,control,NULL,why_A_chosen,no
1524341813,4b6f19e9d3b5b930487acd8cda550b78,Form,18,0,control,NULL,why_B_chosen,no
1524341813,4b6f19e9d3b5b930487acd8cda550b78,Form,18,0,control,NULL,why_C_chosen,yes
1524341813,4b6f19e9d3b5b930487acd8cda550b78,Form,18,0,control,NULL,none_chosen,no
1524341813,4b6f19e9d3b5b930487acd8cda550b78,Form,18,0,control,NULL,_REACTION_TIME_,25609
1524341813,4b6f19e9d3b5b930487acd8cda550b78,Form,23,0,nst,NULL,NST_2a_chosen,yes
1524341813,4b6f19e9d3b5b930487acd8cda550b78,Form,23,0,nst,NULL,NST_2b_chosen,yes
1524341813,4b6f19e9d3b5b930487acd8cda550b78,Form,23,0,nst,NULL,NST_2c_chosen,no
1524341813,4b6f19e9d3b5b930487acd8cda550b78,Form,23,0,nst,NULL,NST_2d_chosen,no
1524341813,4b6f19e9d3b5b930487acd8cda550b78,Form,23,0,nst,NULL,NST_2e_chosen,no
1524341813,4b6f19e9d3b5b930487acd8cda550b78,Form,23,0,nst,NULL,_REACTION_TIME_,16287
1524341813,4b6f19e9d3b5b930487acd8cda550b78,Form,9,0,high,NULL,answers_reported,placeholderFirefighter 1 says%2C "The fifth floor."%2CFirefighter 2 says%2C "The fifth and second floors."%2CFirefighter 3 says%2C "The fourth and sixth floors."
1524341813,4b6f19e9d3b5b930487acd8cda550b78,Form,9,0,high,NULL,firefighter_A_chosen,yes
1524341813,4b6f19e9d3b5b930487acd8cda550b78,Form,9,0,high,NULL,firefighter_B_chosen,no
1524341813,4b6f19e9d3b5b930487acd8cda550b78,Form,9,0,high,NULL,firefighter_C_chosen,no
1524341813,4b6f19e9d3b5b930487acd8cda550b78,Form,9,0,high,NULL,no_one_chosen,no
1524341813,4b6f19e9d3b5b930487acd8cda550b78,Form,9,0,high,NULL,_REACTION_TIME_,24322
1524341813,4b6f19e9d3b5b930487acd8cda550b78,Form,13,0,low,NULL,answers_reported,placeholderCousin 1 says%2C "Location A."%2CCousin 2 says%2C "Locations A%2C D%2C E%2C and F."%2CCousin 3 says%2C "Location F."
1524341813,4b6f19e9d3b5b930487acd8cda550b78,Form,13,0,low,NULL,pic_cousin_A_chosen,no
1524341813,4b6f19e9d3b5b930487acd8cda550b78,Form,13,0,low,NULL,pic_cousin_B_chosen,yes
1524341813,4b6f19e9d3b5b930487acd8cda550b78,Form,13,0,low,NULL,pic_cousin_C_chosen,no
1524341813,4b6f19e9d3b5b930487acd8cda550b78,Form,13,0,low,NULL,no_one_chosen,no
1524341813,4b6f19e9d3b5b930487acd8cda550b78,Form,13,0,low,NULL,_REACTION_TIME_,17994
1524341813,4b6f19e9d3b5b930487acd8cda550b78,Form,20,0,control,NULL,when_A_chosen,no
1524341813,4b6f19e9d3b5b930487acd8cda550b78,Form,20,0,control,NULL,when_B_chosen,yes
1524341813,4b6f19e9d3b5b930487acd8cda550b78,Form,20,0,control,NULL,when_C_chosen,no
1524341813,4b6f19e9d3b5b930487acd8cda550b78,Form,20,0,control,NULL,none_chosen,no
1524341813,4b6f19e9d3b5b930487acd8cda550b78,Form,20,0,control,NULL,_REACTION_TIME_,36500
1524341813,4b6f19e9d3b5b930487acd8cda550b78,Form,25,0,nst,NULL,NST_4a_chosen,no
1524341813,4b6f19e9d3b5b930487acd8cda550b78,Form,25,0,nst,NULL,NST_4b_chosen,yes
1524341813,4b6f19e9d3b5b930487acd8cda550b78,Form,25,0,nst,NULL,_REACTION_TIME_,6171
1524341813,4b6f19e9d3b5b930487acd8cda550b78,Form,6,0,exit_quest,NULL,know_conditons,He found coffee in the house.
1524341813,4b6f19e9d3b5b930487acd8cda550b78,Form,6,0,exit_quest,NULL,know_conditons,He found coffee in the cupboard.
1524341813,4b6f19e9d3b5b930487acd8cda550b78,Form,6,0,exit_quest,NULL,difficult,no
1524341813,4b6f19e9d3b5b930487acd8cda550b78,Form,6,0,exit_quest,NULL,anything_else,no
1524341813,4b6f19e9d3b5b930487acd8cda550b78,Form,6,0,exit_quest,NULL,dummy_checkbox_,yes
1524341813,4b6f19e9d3b5b930487acd8cda550b78,Form,6,0,exit_quest,NULL,_REACTION_TIME_,40508
#
# Results on Saturday April 21 2018 20:17:02 UTC.
# USER AGENT: Mozilla/5.0 (Windows NT 10.0; Win64; x64; rv:59.0) Gecko/20100101 Firefox/59.0
# Design number was non-random = 2
#
# Columns below this comment are as follows:
# 1. Time results were received.
# 2. MD5 hash of participant's IP address.
# 3. Controller name.
# 4. Item number.
# 5. Element number.
# 6. Type.
# 7. Group.
# 8. Field name.
# 9. Field value.
1524341822,9da15e605d4fe3e23ec67ab04cc0e609,Form,2,0,consent,NULL,subject_id,A1P47Q6LZPLQ6P
1524341822,9da15e605d4fe3e23ec67ab04cc0e609,Form,2,0,consent,NULL,native_lang,English
1524341822,9da15e605d4fe3e23ec67ab04cc0e609,Form,2,0,consent,NULL,age,27
1524341822,9da15e605d4fe3e23ec67ab04cc0e609,Form,2,0,consent,NULL,consent_checkbox_,yes
1524341822,9da15e605d4fe3e23ec67ab04cc0e609,Form,2,0,consent,NULL,dummy_checkbox_,yes
1524341822,9da15e605d4fe3e23ec67ab04cc0e609,Form,2,0,consent,NULL,sex,male
1524341822,9da15e605d4fe3e23ec67ab04cc0e609,Form,2,0,consent,NULL,_REACTION_TIME_,53494
1524341822,9da15e605d4fe3e23ec67ab04cc0e609,Form,1,0,instructions,NULL,dummy_checkbox_,yes
1524341822,9da15e605d4fe3e23ec67ab04cc0e609,Form,1,0,instructions,NULL,_REACTION_TIME_,6450
1524341822,9da15e605d4fe3e23ec67ab04cc0e609,Form,3,0,train,NULL,train_f_A_chosen,no
1524341822,9da15e605d4fe3e23ec67ab04cc0e609,Form,3,0,train,NULL,train_f_B_chosen,no
1524341822,9da15e605d4fe3e23ec67ab04cc0e609,Form,3,0,train,NULL,train_f_C_chosen,no
1524341822,9da15e605d4fe3e23ec67ab04cc0e609,Form,3,0,train,NULL,none_chosen,yes
1524341822,9da15e605d4fe3e23ec67ab04cc0e609,Form,3,0,train,NULL,_REACTION_TIME_,25058
1524341822,9da15e605d4fe3e23ec67ab04cc0e609,Form,4,0,train,NULL,train_m_A_chosen,no
1524341822,9da15e605d4fe3e23ec67ab04cc0e609,Form,4,0,train,NULL,train_m_B_chosen,yes
1524341822,9da15e605d4fe3e23ec67ab04cc0e609,Form,4,0,train,NULL,train_m_C_chosen,yes
1524341822,9da15e605d4fe3e23ec67ab04cc0e609,Form,4,0,train,NULL,none_chosen,no
1524341822,9da15e605d4fe3e23ec67ab04cc0e609,Form,4,0,train,NULL,_REACTION_TIME_,22156
1524341822,9da15e605d4fe3e23ec67ab04cc0e609,Form,5,0,train_end,NULL,dummy_checkbox_,yes
1524341822,9da15e605d4fe3e23ec67ab04cc0e609,Form,5,0,train_end,NULL,_REACTION_TIME_,1344
1524341822,9da15e605d4fe3e23ec67ab04cc0e609,Form,10,0,high,NULL,answers_reported,placeholderOperative 1 says%2C "The Northeast district."%2COperative 2 says%2C "The South and North districts."%2COperative 3 says%2C "The Northeast%2C Southwest%2C South%2C Southeast and North districts."
1524341822,9da15e605d4fe3e23ec67ab04cc0e609,Form,10,0,high,NULL,operative_A_chosen,no
1524341822,9da15e605d4fe3e23ec67ab04cc0e609,Form,10,0,high,NULL,operative_B_chosen,no
1524341822,9da15e605d4fe3e23ec67ab04cc0e609,Form,10,0,high,NULL,operative_C_chosen,yes
1524341822,9da15e605d4fe3e23ec67ab04cc0e609,Form,10,0,high,NULL,no_one_chosen,no
1524341822,9da15e605d4fe3e23ec67ab04cc0e609,Form,10,0,high,NULL,_REACTION_TIME_,55896
1524341822,9da15e605d4fe3e23ec67ab04cc0e609,Form,14,0,low,NULL,answers_reported,placeholderFriend 1 says%2C "Diners C and F."%2CFriend 2 says%2C "Diner C."%2CFriend 3 says%2C "Diner B."
1524341822,9da15e605d4fe3e23ec67ab04cc0e609,Form,14,0,low,NULL,la_friend_A_chosen,yes
1524341822,9da15e605d4fe3e23ec67ab04cc0e609,Form,14,0,low,NULL,la_friend_B_chosen,yes
1524341822,9da15e605d4fe3e23ec67ab04cc0e609,Form,14,0,low,NULL,la_friend_C_chosen,no
1524341822,9da15e605d4fe3e23ec67ab04cc0e609,Form,14,0,low,NULL,no_one_chosen,no
1524341822,9da15e605d4fe3e23ec67ab04cc0e609,Form,14,0,low,NULL,_REACTION_TIME_,37696
1524341822,9da15e605d4fe3e23ec67ab04cc0e609,Form,23,0,nst,NULL,NST_2a_chosen,yes
1524341822,9da15e605d4fe3e23ec67ab04cc0e609,Form,23,0,nst,NULL,NST_2b_chosen,yes
1524341822,9da15e605d4fe3e23ec67ab04cc0e609,Form,23,0,nst,NULL,NST_2c_chosen,no
1524341822,9da15e605d4fe3e23ec67ab04cc0e609,Form,23,0,nst,NULL,NST_2d_chosen,no
1524341822,9da15e605d4fe3e23ec67ab04cc0e609,Form,23,0,nst,NULL,NST_2e_chosen,no
1524341822,9da15e605d4fe3e23ec67ab04cc0e609,Form,23,0,nst,NULL,_REACTION_TIME_,15804
1524341822,9da15e605d4fe3e23ec67ab04cc0e609,Form,9,0,high,NULL,answers_reported,placeholderFirefighter 1 says%2C "The fifth floor."%2CFirefighter 2 says%2C "The sixth floor."%2CFirefighter 3 says%2C "The fifth and second floors."
1524341822,9da15e605d4fe3e23ec67ab04cc0e609,Form,9,0,high,NULL,firefighter_A_chosen,no
1524341822,9da15e605d4fe3e23ec67ab04cc0e609,Form,9,0,high,NULL,firefighter_B_chosen,no
1524341822,9da15e605d4fe3e23ec67ab04cc0e609,Form,9,0,high,NULL,firefighter_C_chosen,no
1524341822,9da15e605d4fe3e23ec67ab04cc0e609,Form,9,0,high,NULL,no_one_chosen,yes
1524341822,9da15e605d4fe3e23ec67ab04cc0e609,Form,9,0,high,NULL,_REACTION_TIME_,27020
1524341822,9da15e605d4fe3e23ec67ab04cc0e609,Form,19,0,control,NULL,what_A_chosen,yes
1524341822,9da15e605d4fe3e23ec67ab04cc0e609,Form,19,0,control,NULL,what_B_chosen,no
1524341822,9da15e605d4fe3e23ec67ab04cc0e609,Form,19,0,control,NULL,what_C_chosen,no
1524341822,9da15e605d4fe3e23ec67ab04cc0e609,Form,19,0,control,NULL,none_chosen,no
1524341822,9da15e605d4fe3e23ec67ab04cc0e609,Form,19,0,control,NULL,_REACTION_TIME_,18730
1524341822,9da15e605d4fe3e23ec67ab04cc0e609,Form,17,0,low,NULL,answers_reported,placeholderBrother 1 says%2C "Stall B."%2CBrother 2 says%2C "Stall C."%2CBrother 3 says%2C "Stalls C and D."
1524341822,9da15e605d4fe3e23ec67ab04cc0e609,Form,17,0,low,NULL,brother_A_chosen,no
1524341822,9da15e605d4fe3e23ec67ab04cc0e609,Form,17,0,low,NULL,brother_B_chosen,no
1524341822,9da15e605d4fe3e23ec67ab04cc0e609,Form,17,0,low,NULL,brother_C_chosen,no
1524341822,9da15e605d4fe3e23ec67ab04cc0e609,Form,17,0,low,NULL,no_one_chosen,yes
1524341822,9da15e605d4fe3e23ec67ab04cc0e609,Form,17,0,low,NULL,_REACTION_TIME_,14058
1524341822,9da15e605d4fe3e23ec67ab04cc0e609,Form,24,0,nst,NULL,NST_3a_chosen,yes
1524341822,9da15e605d4fe3e23ec67ab04cc0e609,Form,24,0,nst,NULL,NST_3b_chosen,no
1524341822,9da15e605d4fe3e23ec67ab04cc0e609,Form,24,0,nst,NULL,NST_3c_chosen,no
1524341822,9da15e605d4fe3e23ec67ab04cc0e609,Form,24,0,nst,NULL,NST_3d_chosen,yes
1524341822,9da15e605d4fe3e23ec67ab04cc0e609,Form,24,0,nst,NULL,NST_3e_chosen,no
1524341822,9da15e605d4fe3e23ec67ab04cc0e609,Form,24,0,nst,NULL,_REACTION_TIME_,13746
1524341822,9da15e605d4fe3e23ec67ab04cc0e609,Form,8,0,high,NULL,answers_reported,placeholderInspector 1 says%2C "Restaurants C and E."%2CInspector 2 says%2C "Restaurants A and B."%2CInspector 3 says%2C "Restaurant F."
1524341822,9da15e605d4fe3e23ec67ab04cc0e609,Form,8,0,high,NULL,inspector_A_chosen,no
1524341822,9da15e605d4fe3e23ec67ab04cc0e609,Form,8,0,high,NULL,inspector_B_chosen,no
1524341822,9da15e605d4fe3e23ec67ab04cc0e609,Form,8,0,high,NULL,inspector_C_chosen,no
1524341822,9da15e605d4fe3e23ec67ab04cc0e609,Form,8,0,high,NULL,no_one_chosen,yes
1524341822,9da15e605d4fe3e23ec67ab04cc0e609,Form,8,0,high,NULL,_REACTION_TIME_,20722
1524341822,9da15e605d4fe3e23ec67ab04cc0e609,Form,21,0,control,NULL,how_guest_A_chosen,no
1524341822,9da15e605d4fe3e23ec67ab04cc0e609,Form,21,0,control,NULL,how_guest_B_chosen,yes
1524341822,9da15e605d4fe3e23ec67ab04cc0e609,Form,21,0,control,NULL,how_guest_C_chosen,yes
1524341822,9da15e605d4fe3e23ec67ab04cc0e609,Form,21,0,control,NULL,none_chosen,no
1524341822,9da15e605d4fe3e23ec67ab04cc0e609,Form,21,0,control,NULL,_REACTION_TIME_,29288
1524341822,9da15e605d4fe3e23ec67ab04cc0e609,Form,15,0,low,NULL,answers_reported,placeholderClassmate 1 says%2C "Cafes F and D."%2CClassmate 2 says%2C "Cafe D."%2CClassmate 3 says%2C "Cafe A."
1524341822,9da15e605d4fe3e23ec67ab04cc0e609,Form,15,0,low,NULL,coffee_classmate_A_chosen,no
1524341822,9da15e605d4fe3e23ec67ab04cc0e609,Form,15,0,low,NULL,coffee_classmate_B_chosen,no
1524341822,9da15e605d4fe3e23ec67ab04cc0e609,Form,15,0,low,NULL,coffee_classmate_C_chosen,no
1524341822,9da15e605d4fe3e23ec67ab04cc0e609,Form,15,0,low,NULL,no_one_chosen,yes
1524341822,9da15e605d4fe3e23ec67ab04cc0e609,Form,15,0,low,NULL,_REACTION_TIME_,116418
1524341822,9da15e605d4fe3e23ec67ab04cc0e609,Form,12,0,high,NULL,answers_reported,placeholderInvestigator 1 says%2C "Place D."%2CInvestigator 2 says%2C "Place E."%2CInvestigator 3 says%2C "Place F."
1524341822,9da15e605d4fe3e23ec67ab04cc0e609,Form,12,0,high,NULL,fbi_investigator_A_chosen,no
1524341822,9da15e605d4fe3e23ec67ab04cc0e609,Form,12,0,high,NULL,fbi_investigator_B_chosen,no
1524341822,9da15e605d4fe3e23ec67ab04cc0e609,Form,12,0,high,NULL,fbi_investigator_C_chosen,no
1524341822,9da15e605d4fe3e23ec67ab04cc0e609,Form,12,0,high,NULL,no_one_chosen,yes
1524341822,9da15e605d4fe3e23ec67ab04cc0e609,Form,12,0,high,NULL,_REACTION_TIME_,14840
1524341822,9da15e605d4fe3e23ec67ab04cc0e609,Form,25,0,nst,NULL,NST_4a_chosen,no
1524341822,9da15e605d4fe3e23ec67ab04cc0e609,Form,25,0,nst,NULL,NST_4b_chosen,yes
1524341822,9da15e605d4fe3e23ec67ab04cc0e609,Form,25,0,nst,NULL,_REACTION_TIME_,8076
1524341822,9da15e605d4fe3e23ec67ab04cc0e609,Form,13,0,low,NULL,answers_reported,placeholderCousin 1 says%2C "Locations D and F."%2CCousin 2 says%2C "Location B."%2CCousin 3 says%2C "Location F."
1524341822,9da15e605d4fe3e23ec67ab04cc0e609,Form,13,0,low,NULL,pic_cousin_A_chosen,no
1524341822,9da15e605d4fe3e23ec67ab04cc0e609,Form,13,0,low,NULL,pic_cousin_B_chosen,no
1524341822,9da15e605d4fe3e23ec67ab04cc0e609,Form,13,0,low,NULL,pic_cousin_C_chosen,no
1524341822,9da15e605d4fe3e23ec67ab04cc0e609,Form,13,0,low,NULL,no_one_chosen,yes
1524341822,9da15e605d4fe3e23ec67ab04cc0e609,Form,13,0,low,NULL,_REACTION_TIME_,13466
1524341822,9da15e605d4fe3e23ec67ab04cc0e609,Form,18,0,control,NULL,why_A_chosen,yes
1524341822,9da15e605d4fe3e23ec67ab04cc0e609,Form,18,0,control,NULL,why_B_chosen,yes
1524341822,9da15e605d4fe3e23ec67ab04cc0e609,Form,18,0,control,NULL,why_C_chosen,no
1524341822,9da15e605d4fe3e23ec67ab04cc0e609,Form,18,0,control,NULL,none_chosen,no
1524341822,9da15e605d4fe3e23ec67ab04cc0e609,Form,18,0,control,NULL,_REACTION_TIME_,22148
1524341822,9da15e605d4fe3e23ec67ab04cc0e609,Form,11,0,high,NULL,answers_reported,placeholderAdviser 1 says%2C "Store C."%2CAdviser 2 says%2C "Stores E and B."%2CAdviser 3 says%2C "Store E."
1524341822,9da15e605d4fe3e23ec67ab04cc0e609,Form,11,0,high,NULL,terrorism_advisor_A_chosen,no
1524341822,9da15e605d4fe3e23ec67ab04cc0e609,Form,11,0,high,NULL,terrorism_advisor_B_chosen,no
1524341822,9da15e605d4fe3e23ec67ab04cc0e609,Form,11,0,high,NULL,terrorism_advisor_C_chosen,no
1524341822,9da15e605d4fe3e23ec67ab04cc0e609,Form,11,0,high,NULL,no_one_chosen,yes
1524341822,9da15e605d4fe3e23ec67ab04cc0e609,Form,11,0,high,NULL,_REACTION_TIME_,14842
1524341822,9da15e605d4fe3e23ec67ab04cc0e609,Form,16,0,low,NULL,answers_reported,placeholderCoworker 1 says%2C "Studio A."%2CCoworker 2 says%2C "Studio B."%2CCoworker 3 says%2C "Studios F and E."
1524341822,9da15e605d4fe3e23ec67ab04cc0e609,Form,16,0,low,NULL,yoga_coworker_A_chosen,no
1524341822,9da15e605d4fe3e23ec67ab04cc0e609,Form,16,0,low,NULL,yoga_coworker_B_chosen,no
1524341822,9da15e605d4fe3e23ec67ab04cc0e609,Form,16,0,low,NULL,yoga_coworker_C_chosen,no
1524341822,9da15e605d4fe3e23ec67ab04cc0e609,Form,16,0,low,NULL,no_one_chosen,yes
1524341822,9da15e605d4fe3e23ec67ab04cc0e609,Form,16,0,low,NULL,_REACTION_TIME_,14160
1524341822,9da15e605d4fe3e23ec67ab04cc0e609,Form,22,0,nst,NULL,NST_1a_chosen,yes
1524341822,9da15e605d4fe3e23ec67ab04cc0e609,Form,22,0,nst,NULL,NST_1b_chosen,no
1524341822,9da15e605d4fe3e23ec67ab04cc0e609,Form,22,0,nst,NULL,NST_1c_chosen,no
1524341822,9da15e605d4fe3e23ec67ab04cc0e609,Form,22,0,nst,NULL,NST_1d_chosen,yes
1524341822,9da15e605d4fe3e23ec67ab04cc0e609,Form,22,0,nst,NULL,_REACTION_TIME_,15708
1524341822,9da15e605d4fe3e23ec67ab04cc0e609,Form,20,0,control,NULL,when_A_chosen,no
1524341822,9da15e605d4fe3e23ec67ab04cc0e609,Form,20,0,control,NULL,when_B_chosen,no
1524341822,9da15e605d4fe3e23ec67ab04cc0e609,Form,20,0,control,NULL,when_C_chosen,no
1524341822,9da15e605d4fe3e23ec67ab04cc0e609,Form,20,0,control,NULL,none_chosen,yes
1524341822,9da15e605d4fe3e23ec67ab04cc0e609,Form,20,0,control,NULL,_REACTION_TIME_,20082
1524341822,9da15e605d4fe3e23ec67ab04cc0e609,Form,6,0,exit_quest,NULL,know_conditons,John found the coffee in the cupboard.
1524341822,9da15e605d4fe3e23ec67ab04cc0e609,Form,6,0,exit_quest,NULL,know_conditons,John can find coffee at the store.
1524341822,9da15e605d4fe3e23ec67ab04cc0e609,Form,6,0,exit_quest,NULL,difficult,Not really%2C pretty simple.
1524341822,9da15e605d4fe3e23ec67ab04cc0e609,Form,6,0,exit_quest,NULL,anything_else,NA
1524341822,9da15e605d4fe3e23ec67ab04cc0e609,Form,6,0,exit_quest,NULL,dummy_checkbox_,yes
1524341822,9da15e605d4fe3e23ec67ab04cc0e609,Form,6,0,exit_quest,NULL,_REACTION_TIME_,40104
#
# Results on Saturday April 21 2018 20:17:23 UTC.
# USER AGENT: Mozilla/5.0 (Windows NT 10.0; Win64; x64) AppleWebKit/537.36 (KHTML, like Gecko) Chrome/65.0.3325.181 Safari/537.36
# Design number was non-random = 2
#
# Columns below this comment are as follows:
# 1. Time results were received.
# 2. MD5 hash of participant's IP address.
# 3. Controller name.
# 4. Item number.
# 5. Element number.
# 6. Type.
# 7. Group.
# 8. Field name.
# 9. Field value.
1524341843,e39f84e501f41226aa1875da7a37650e,Form,2,0,consent,NULL,subject_id,A1WOCD9SAYI07V
1524341843,e39f84e501f41226aa1875da7a37650e,Form,2,0,consent,NULL,native_lang,English
1524341843,e39f84e501f41226aa1875da7a37650e,Form,2,0,consent,NULL,age,59
1524341843,e39f84e501f41226aa1875da7a37650e,Form,2,0,consent,NULL,consent_checkbox_,yes
1524341843,e39f84e501f41226aa1875da7a37650e,Form,2,0,consent,NULL,dummy_checkbox_,yes
1524341843,e39f84e501f41226aa1875da7a37650e,Form,2,0,consent,NULL,sex,female
1524341843,e39f84e501f41226aa1875da7a37650e,Form,2,0,consent,NULL,_REACTION_TIME_,95143
1524341843,e39f84e501f41226aa1875da7a37650e,Form,1,0,instructions,NULL,dummy_checkbox_,yes
1524341843,e39f84e501f41226aa1875da7a37650e,Form,1,0,instructions,NULL,_REACTION_TIME_,2688
1524341843,e39f84e501f41226aa1875da7a37650e,Form,4,0,train,NULL,train_m_A_chosen,no
1524341843,e39f84e501f41226aa1875da7a37650e,Form,4,0,train,NULL,train_m_B_chosen,no
1524341843,e39f84e501f41226aa1875da7a37650e,Form,4,0,train,NULL,train_m_C_chosen,yes
1524341843,e39f84e501f41226aa1875da7a37650e,Form,4,0,train,NULL,none_chosen,no
1524341843,e39f84e501f41226aa1875da7a37650e,Form,4,0,train,NULL,_REACTION_TIME_,51310
1524341843,e39f84e501f41226aa1875da7a37650e,Form,3,0,train,NULL,train_f_A_chosen,no
1524341843,e39f84e501f41226aa1875da7a37650e,Form,3,0,train,NULL,train_f_B_chosen,no
1524341843,e39f84e501f41226aa1875da7a37650e,Form,3,0,train,NULL,train_f_C_chosen,no
1524341843,e39f84e501f41226aa1875da7a37650e,Form,3,0,train,NULL,none_chosen,yes
1524341843,e39f84e501f41226aa1875da7a37650e,Form,3,0,train,NULL,_REACTION_TIME_,25557
1524341843,e39f84e501f41226aa1875da7a37650e,Form,5,0,train_end,NULL,dummy_checkbox_,yes
1524341843,e39f84e501f41226aa1875da7a37650e,Form,5,0,train_end,NULL,_REACTION_TIME_,1445
1524341843,e39f84e501f41226aa1875da7a37650e,Form,14,0,low,NULL,answers_reported,placeholderFriend 1 says%2C "Diners A and E."%2CFriend 2 says%2C "Diners C%2C F%2C A%2C D%2C and E."%2CFriend 3 says%2C "Diners C and F."
1524341843,e39f84e501f41226aa1875da7a37650e,Form,14,0,low,NULL,la_friend_A_chosen,no
1524341843,e39f84e501f41226aa1875da7a37650e,Form,14,0,low,NULL,la_friend_B_chosen,yes
1524341843,e39f84e501f41226aa1875da7a37650e,Form,14,0,low,NULL,la_friend_C_chosen,no
1524341843,e39f84e501f41226aa1875da7a37650e,Form,14,0,low,NULL,no_one_chosen,no
1524341843,e39f84e501f41226aa1875da7a37650e,Form,14,0,low,NULL,_REACTION_TIME_,40086
1524341843,e39f84e501f41226aa1875da7a37650e,Form,10,0,high,NULL,answers_reported,placeholderOperative 1 says%2C "The South and North districts."%2COperative 2 says%2C "The North district."%2COperative 3 says%2C "The Northeast%2C Southwest%2C South%2C Southeast and North districts."
1524341843,e39f84e501f41226aa1875da7a37650e,Form,10,0,high,NULL,operative_A_chosen,no
1524341843,e39f84e501f41226aa1875da7a37650e,Form,10,0,high,NULL,operative_B_chosen,no
1524341843,e39f84e501f41226aa1875da7a37650e,Form,10,0,high,NULL,operative_C_chosen,yes
1524341843,e39f84e501f41226aa1875da7a37650e,Form,10,0,high,NULL,no_one_chosen,no
1524341843,e39f84e501f41226aa1875da7a37650e,Form,10,0,high,NULL,_REACTION_TIME_,26692
1524341843,e39f84e501f41226aa1875da7a37650e,Form,19,0,control,NULL,what_A_chosen,yes
1524341843,e39f84e501f41226aa1875da7a37650e,Form,19,0,control,NULL,what_B_chosen,yes
1524341843,e39f84e501f41226aa1875da7a37650e,Form,19,0,control,NULL,what_C_chosen,no
1524341843,e39f84e501f41226aa1875da7a37650e,Form,19,0,control,NULL,none_chosen,no
1524341843,e39f84e501f41226aa1875da7a37650e,Form,19,0,control,NULL,_REACTION_TIME_,24928
1524341843,e39f84e501f41226aa1875da7a37650e,Form,23,0,nst,NULL,NST_2a_chosen,no
1524341843,e39f84e501f41226aa1875da7a37650e,Form,23,0,nst,NULL,NST_2b_chosen,yes
1524341843,e39f84e501f41226aa1875da7a37650e,Form,23,0,nst,NULL,NST_2c_chosen,no
1524341843,e39f84e501f41226aa1875da7a37650e,Form,23,0,nst,NULL,NST_2d_chosen,no
1524341843,e39f84e501f41226aa1875da7a37650e,Form,23,0,nst,NULL,NST_2e_chosen,no
1524341843,e39f84e501f41226aa1875da7a37650e,Form,23,0,nst,NULL,_REACTION_TIME_,25680
1524341843,e39f84e501f41226aa1875da7a37650e,Form,17,0,low,NULL,answers_reported,placeholderBrother 1 says%2C "Stall E."%2CBrother 2 says%2C "Stalls C%2C D%2C A%2C F and B."%2CBrother 3 says%2C "Stalls A and B."
1524341843,e39f84e501f41226aa1875da7a37650e,Form,17,0,low,NULL,brother_A_chosen,no
1524341843,e39f84e501f41226aa1875da7a37650e,Form,17,0,low,NULL,brother_B_chosen,yes
1524341843,e39f84e501f41226aa1875da7a37650e,Form,17,0,low,NULL,brother_C_chosen,no
1524341843,e39f84e501f41226aa1875da7a37650e,Form,17,0,low,NULL,no_one_chosen,no
1524341843,e39f84e501f41226aa1875da7a37650e,Form,17,0,low,NULL,_REACTION_TIME_,10094
1524341843,e39f84e501f41226aa1875da7a37650e,Form,8,0,high,NULL,answers_reported,placeholderInspector 1 says%2C "Restaurants C and E."%2CInspector 2 says%2C "Restaurant A."%2CInspector 3 says%2C "Restaurant E."
1524341843,e39f84e501f41226aa1875da7a37650e,Form,8,0,high,NULL,inspector_A_chosen,no
1524341843,e39f84e501f41226aa1875da7a37650e,Form,8,0,high,NULL,inspector_B_chosen,no
1524341843,e39f84e501f41226aa1875da7a37650e,Form,8,0,high,NULL,inspector_C_chosen,no
1524341843,e39f84e501f41226aa1875da7a37650e,Form,8,0,high,NULL,no_one_chosen,yes
1524341843,e39f84e501f41226aa1875da7a37650e,Form,8,0,high,NULL,_REACTION_TIME_,16919
1524341843,e39f84e501f41226aa1875da7a37650e,Form,20,0,control,NULL,when_A_chosen,no
1524341843,e39f84e501f41226aa1875da7a37650e,Form,20,0,control,NULL,when_B_chosen,no
1524341843,e39f84e501f41226aa1875da7a37650e,Form,20,0,control,NULL,when_C_chosen,no
1524341843,e39f84e501f41226aa1875da7a37650e,Form,20,0,control,NULL,none_chosen,yes
1524341843,e39f84e501f41226aa1875da7a37650e,Form,20,0,control,NULL,_REACTION_TIME_,20618
1524341843,e39f84e501f41226aa1875da7a37650e,Form,24,0,nst,NULL,NST_3a_chosen,yes
1524341843,e39f84e501f41226aa1875da7a37650e,Form,24,0,nst,NULL,NST_3b_chosen,no
1524341843,e39f84e501f41226aa1875da7a37650e,Form,24,0,nst,NULL,NST_3c_chosen,no
1524341843,e39f84e501f41226aa1875da7a37650e,Form,24,0,nst,NULL,NST_3d_chosen,no
1524341843,e39f84e501f41226aa1875da7a37650e,Form,24,0,nst,NULL,NST_3e_chosen,no
1524341843,e39f84e501f41226aa1875da7a37650e,Form,24,0,nst,NULL,_REACTION_TIME_,18424
1524341843,e39f84e501f41226aa1875da7a37650e,Form,16,0,low,NULL,answers_reported,placeholderCoworker 1 says%2C "Studios C and B."%2CCoworker 2 says%2C "Studio F."%2CCoworker 3 says%2C "Studios F and E."
1524341843,e39f84e501f41226aa1875da7a37650e,Form,16,0,low,NULL,yoga_coworker_A_chosen,no
1524341843,e39f84e501f41226aa1875da7a37650e,Form,16,0,low,NULL,yoga_coworker_B_chosen,no
1524341843,e39f84e501f41226aa1875da7a37650e,Form,16,0,low,NULL,yoga_coworker_C_chosen,no
1524341843,e39f84e501f41226aa1875da7a37650e,Form,16,0,low,NULL,no_one_chosen,yes
1524341843,e39f84e501f41226aa1875da7a37650e,Form,16,0,low,NULL,_REACTION_TIME_,9236
1524341843,e39f84e501f41226aa1875da7a37650e,Form,11,0,high,NULL,answers_reported,placeholderAdviser 1 says%2C "Store F."%2CAdviser 2 says%2C "Store C."%2CAdviser 3 says%2C "Store E."
1524341843,e39f84e501f41226aa1875da7a37650e,Form,11,0,high,NULL,terrorism_advisor_A_chosen,no
1524341843,e39f84e501f41226aa1875da7a37650e,Form,11,0,high,NULL,terrorism_advisor_B_chosen,no
1524341843,e39f84e501f41226aa1875da7a37650e,Form,11,0,high,NULL,terrorism_advisor_C_chosen,no
1524341843,e39f84e501f41226aa1875da7a37650e,Form,11,0,high,NULL,no_one_chosen,yes
1524341843,e39f84e501f41226aa1875da7a37650e,Form,11,0,high,NULL,_REACTION_TIME_,16780
1524341843,e39f84e501f41226aa1875da7a37650e,Form,13,0,low,NULL,answers_reported,placeholderCousin 1 says%2C "Location A."%2CCousin 2 says%2C "Location F."%2CCousin 3 says%2C "Locations A and D."
1524341843,e39f84e501f41226aa1875da7a37650e,Form,13,0,low,NULL,pic_cousin_A_chosen,no
1524341843,e39f84e501f41226aa1875da7a37650e,Form,13,0,low,NULL,pic_cousin_B_chosen,no
1524341843,e39f84e501f41226aa1875da7a37650e,Form,13,0,low,NULL,pic_cousin_C_chosen,no
1524341843,e39f84e501f41226aa1875da7a37650e,Form,13,0,low,NULL,no_one_chosen,yes
1524341843,e39f84e501f41226aa1875da7a37650e,Form,13,0,low,NULL,_REACTION_TIME_,20714
1524341843,e39f84e501f41226aa1875da7a37650e,Form,21,0,control,NULL,how_guest_A_chosen,no
1524341843,e39f84e501f41226aa1875da7a37650e,Form,21,0,control,NULL,how_guest_B_chosen,yes
1524341843,e39f84e501f41226aa1875da7a37650e,Form,21,0,control,NULL,how_guest_C_chosen,no
1524341843,e39f84e501f41226aa1875da7a37650e,Form,21,0,control,NULL,none_chosen,no
1524341843,e39f84e501f41226aa1875da7a37650e,Form,21,0,control,NULL,_REACTION_TIME_,15366
1524341843,e39f84e501f41226aa1875da7a37650e,Form,22,0,nst,NULL,NST_1a_chosen,yes
1524341843,e39f84e501f41226aa1875da7a37650e,Form,22,0,nst,NULL,NST_1b_chosen,no
1524341843,e39f84e501f41226aa1875da7a37650e,Form,22,0,nst,NULL,NST_1c_chosen,no
1524341843,e39f84e501f41226aa1875da7a37650e,Form,22,0,nst,NULL,NST_1d_chosen,yes
1524341843,e39f84e501f41226aa1875da7a37650e,Form,22,0,nst,NULL,_REACTION_TIME_,11211
1524341843,e39f84e501f41226aa1875da7a37650e,Form,12,0,high,NULL,answers_reported,placeholderInvestigator 1 says%2C "Places B and E."%2CInvestigator 2 says%2C "Place D."%2CInvestigator 3 says%2C "Place F."
1524341843,e39f84e501f41226aa1875da7a37650e,Form,12,0,high,NULL,fbi_investigator_A_chosen,no
1524341843,e39f84e501f41226aa1875da7a37650e,Form,12,0,high,NULL,fbi_investigator_B_chosen,no
1524341843,e39f84e501f41226aa1875da7a37650e,Form,12,0,high,NULL,fbi_investigator_C_chosen,yes
1524341843,e39f84e501f41226aa1875da7a37650e,Form,12,0,high,NULL,no_one_chosen,yes
1524341843,e39f84e501f41226aa1875da7a37650e,Form,12,0,high,NULL,_REACTION_TIME_,12764
1524341843,e39f84e501f41226aa1875da7a37650e,Form,15,0,low,NULL,answers_reported,placeholderClassmate 1 says%2C "Cafes F and D."%2CClassmate 2 says%2C "Cafes E and B."%2CClassmate 3 says%2C "Cafe A."
1524341843,e39f84e501f41226aa1875da7a37650e,Form,15,0,low,NULL,coffee_classmate_A_chosen,no
1524341843,e39f84e501f41226aa1875da7a37650e,Form,15,0,low,NULL,coffee_classmate_B_chosen,no
1524341843,e39f84e501f41226aa1875da7a37650e,Form,15,0,low,NULL,coffee_classmate_C_chosen,no
1524341843,e39f84e501f41226aa1875da7a37650e,Form,15,0,low,NULL,no_one_chosen,yes
1524341843,e39f84e501f41226aa1875da7a37650e,Form,15,0,low,NULL,_REACTION_TIME_,12509
1524341843,e39f84e501f41226aa1875da7a37650e,Form,9,0,high,NULL,answers_reported,placeholderFirefighter 1 says%2C "The fourth and sixth floors."%2CFirefighter 2 says%2C "The fifth floor."%2CFirefighter 3 says%2C "The fifth%2C second%2C fourth%2C third and sixth floors."
1524341843,e39f84e501f41226aa1875da7a37650e,Form,9,0,high,NULL,firefighter_A_chosen,no
1524341843,e39f84e501f41226aa1875da7a37650e,Form,9,0,high,NULL,firefighter_B_chosen,no
1524341843,e39f84e501f41226aa1875da7a37650e,Form,9,0,high,NULL,firefighter_C_chosen,yes
1524341843,e39f84e501f41226aa1875da7a37650e,Form,9,0,high,NULL,no_one_chosen,no
1524341843,e39f84e501f41226aa1875da7a37650e,Form,9,0,high,NULL,_REACTION_TIME_,11768
1524341843,e39f84e501f41226aa1875da7a37650e,Form,18,0,control,NULL,why_A_chosen,yes
1524341843,e39f84e501f41226aa1875da7a37650e,Form,18,0,control,NULL,why_B_chosen,yes
1524341843,e39f84e501f41226aa1875da7a37650e,Form,18,0,control,NULL,why_C_chosen,no
1524341843,e39f84e501f41226aa1875da7a37650e,Form,18,0,control,NULL,none_chosen,no
1524341843,e39f84e501f41226aa1875da7a37650e,Form,18,0,control,NULL,_REACTION_TIME_,14821
1524341843,e39f84e501f41226aa1875da7a37650e,Form,25,0,nst,NULL,NST_4a_chosen,no
1524341843,e39f84e501f41226aa1875da7a37650e,Form,25,0,nst,NULL,NST_4b_chosen,yes
1524341843,e39f84e501f41226aa1875da7a37650e,Form,25,0,nst,NULL,_REACTION_TIME_,8025
1524341843,e39f84e501f41226aa1875da7a37650e,Form,6,0,exit_quest,NULL,know_conditons,I would answer the question in past-tense since I would be describing where he found the coffee earlier.
1524341843,e39f84e501f41226aa1875da7a37650e,Form,6,0,exit_quest,NULL,know_conditons,I would answer in present tense because I am explaining where John can find the coffee right now.
1524341843,e39f84e501f41226aa1875da7a37650e,Form,6,0,exit_quest,NULL,difficult,I think this task was a bit strange%2C but not really all that difficult. It mostly just involved reading comprehension.
1524341843,e39f84e501f41226aa1875da7a37650e,Form,6,0,exit_quest,NULL,anything_else,
1524341843,e39f84e501f41226aa1875da7a37650e,Form,6,0,exit_quest,NULL,dummy_checkbox_,yes
1524341843,e39f84e501f41226aa1875da7a37650e,Form,6,0,exit_quest,NULL,_REACTION_TIME_,97533
#
# Results on Saturday April 21 2018 20:19:01 UTC.
# USER AGENT: Mozilla/5.0 (Windows NT 6.1; Win64; x64) AppleWebKit/537.36 (KHTML, like Gecko) Chrome/65.0.3325.181 Safari/537.36
# Design number was non-random = 2
#
# Columns below this comment are as follows:
# 1. Time results were received.
# 2. MD5 hash of participant's IP address.
# 3. Controller name.
# 4. Item number.
# 5. Element number.
# 6. Type.
# 7. Group.
# 8. Field name.
# 9. Field value.
1524341942,61b2cc81bce47f41d9e349393c9b8621,Form,2,0,consent,NULL,subject_id,A2EA2PN47ZWILX
1524341942,61b2cc81bce47f41d9e349393c9b8621,Form,2,0,consent,NULL,native_lang,English
1524341942,61b2cc81bce47f41d9e349393c9b8621,Form,2,0,consent,NULL,age,41
1524341942,61b2cc81bce47f41d9e349393c9b8621,Form,2,0,consent,NULL,consent_checkbox_,yes
1524341942,61b2cc81bce47f41d9e349393c9b8621,Form,2,0,consent,NULL,dummy_checkbox_,yes
1524341942,61b2cc81bce47f41d9e349393c9b8621,Form,2,0,consent,NULL,sex,female
1524341942,61b2cc81bce47f41d9e349393c9b8621,Form,2,0,consent,NULL,_REACTION_TIME_,64642
1524341942,61b2cc81bce47f41d9e349393c9b8621,Form,1,0,instructions,NULL,dummy_checkbox_,yes
1524341942,61b2cc81bce47f41d9e349393c9b8621,Form,1,0,instructions,NULL,_REACTION_TIME_,10672
1524341942,61b2cc81bce47f41d9e349393c9b8621,Form,4,0,train,NULL,train_m_A_chosen,no
1524341942,61b2cc81bce47f41d9e349393c9b8621,Form,4,0,train,NULL,train_m_B_chosen,no
1524341942,61b2cc81bce47f41d9e349393c9b8621,Form,4,0,train,NULL,train_m_C_chosen,yes
1524341942,61b2cc81bce47f41d9e349393c9b8621,Form,4,0,train,NULL,none_chosen,no
1524341942,61b2cc81bce47f41d9e349393c9b8621,Form,4,0,train,NULL,_REACTION_TIME_,49741
1524341942,61b2cc81bce47f41d9e349393c9b8621,Form,3,0,train,NULL,train_f_A_chosen,no
1524341942,61b2cc81bce47f41d9e349393c9b8621,Form,3,0,train,NULL,train_f_B_chosen,no
1524341942,61b2cc81bce47f41d9e349393c9b8621,Form,3,0,train,NULL,train_f_C_chosen,no
1524341942,61b2cc81bce47f41d9e349393c9b8621,Form,3,0,train,NULL,none_chosen,yes
1524341942,61b2cc81bce47f41d9e349393c9b8621,Form,3,0,train,NULL,_REACTION_TIME_,72561
1524341942,61b2cc81bce47f41d9e349393c9b8621,Form,5,0,train_end,NULL,dummy_checkbox_,yes
1524341942,61b2cc81bce47f41d9e349393c9b8621,Form,5,0,train_end,NULL,_REACTION_TIME_,2377
1524341942,61b2cc81bce47f41d9e349393c9b8621,Form,17,0,low,NULL,answers_reported,placeholderBrother 1 says%2C "Stalls A and B."%2CBrother 2 says%2C "Stall E."%2CBrother 3 says%2C "Stalls C%2C D%2C A%2C F and B."
1524341942,61b2cc81bce47f41d9e349393c9b8621,Form,17,0,low,NULL,brother_A_chosen,no
1524341942,61b2cc81bce47f41d9e349393c9b8621,Form,17,0,low,NULL,brother_B_chosen,no
1524341942,61b2cc81bce47f41d9e349393c9b8621,Form,17,0,low,NULL,brother_C_chosen,yes
1524341942,61b2cc81bce47f41d9e349393c9b8621,Form,17,0,low,NULL,no_one_chosen,no
1524341942,61b2cc81bce47f41d9e349393c9b8621,Form,17,0,low,NULL,_REACTION_TIME_,67199
1524341942,61b2cc81bce47f41d9e349393c9b8621,Form,10,0,high,NULL,answers_reported,placeholderOperative 1 says%2C "The South and North districts."%2COperative 2 says%2C "The West district."%2COperative 3 says%2C "The Northeast and Southwest districts."
1524341942,61b2cc81bce47f41d9e349393c9b8621,Form,10,0,high,NULL,operative_A_chosen,no
1524341942,61b2cc81bce47f41d9e349393c9b8621,Form,10,0,high,NULL,operative_B_chosen,no
1524341942,61b2cc81bce47f41d9e349393c9b8621,Form,10,0,high,NULL,operative_C_chosen,no
1524341942,61b2cc81bce47f41d9e349393c9b8621,Form,10,0,high,NULL,no_one_chosen,yes
1524341942,61b2cc81bce47f41d9e349393c9b8621,Form,10,0,high,NULL,_REACTION_TIME_,113916
1524341942,61b2cc81bce47f41d9e349393c9b8621,Form,24,0,nst,NULL,NST_3a_chosen,yes
1524341942,61b2cc81bce47f41d9e349393c9b8621,Form,24,0,nst,NULL,NST_3b_chosen,no
1524341942,61b2cc81bce47f41d9e349393c9b8621,Form,24,0,nst,NULL,NST_3c_chosen,no
1524341942,61b2cc81bce47f41d9e349393c9b8621,Form,24,0,nst,NULL,NST_3d_chosen,yes
1524341942,61b2cc81bce47f41d9e349393c9b8621,Form,24,0,nst,NULL,NST_3e_chosen,no
1524341942,61b2cc81bce47f41d9e349393c9b8621,Form,24,0,nst,NULL,_REACTION_TIME_,42051
1524341942,61b2cc81bce47f41d9e349393c9b8621,Form,18,0,control,NULL,why_A_chosen,yes
1524341942,61b2cc81bce47f41d9e349393c9b8621,Form,18,0,control,NULL,why_B_chosen,no
1524341942,61b2cc81bce47f41d9e349393c9b8621,Form,18,0,control,NULL,why_C_chosen,no
1524341942,61b2cc81bce47f41d9e349393c9b8621,Form,18,0,control,NULL,none_chosen,no
1524341942,61b2cc81bce47f41d9e349393c9b8621,Form,18,0,control,NULL,_REACTION_TIME_,42407
1524341942,61b2cc81bce47f41d9e349393c9b8621,Form,13,0,low,NULL,answers_reported,placeholderCousin 1 says%2C "Locations D and F."%2CCousin 2 says%2C "Locations A and D."%2CCousin 3 says%2C "Location F."
1524341942,61b2cc81bce47f41d9e349393c9b8621,Form,13,0,low,NULL,pic_cousin_A_chosen,no
1524341942,61b2cc81bce47f41d9e349393c9b8621,Form,13,0,low,NULL,pic_cousin_B_chosen,no
1524341942,61b2cc81bce47f41d9e349393c9b8621,Form,13,0,low,NULL,pic_cousin_C_chosen,no
1524341942,61b2cc81bce47f41d9e349393c9b8621,Form,13,0,low,NULL,no_one_chosen,yes
1524341942,61b2cc81bce47f41d9e349393c9b8621,Form,13,0,low,NULL,_REACTION_TIME_,44908
1524341942,61b2cc81bce47f41d9e349393c9b8621,Form,8,0,high,NULL,answers_reported,placeholderInspector 1 says%2C "Restaurant A."%2CInspector 2 says%2C "Restaurants A and B."%2CInspector 3 says%2C "Restaurant E."
1524341942,61b2cc81bce47f41d9e349393c9b8621,Form,8,0,high,NULL,inspector_A_chosen,no
1524341942,61b2cc81bce47f41d9e349393c9b8621,Form,8,0,high,NULL,inspector_B_chosen,no
1524341942,61b2cc81bce47f41d9e349393c9b8621,Form,8,0,high,NULL,inspector_C_chosen,no
1524341942,61b2cc81bce47f41d9e349393c9b8621,Form,8,0,high,NULL,no_one_chosen,yes
1524341942,61b2cc81bce47f41d9e349393c9b8621,Form,8,0,high,NULL,_REACTION_TIME_,15497
1524341942,61b2cc81bce47f41d9e349393c9b8621,Form,22,0,nst,NULL,NST_1a_chosen,yes
1524341942,61b2cc81bce47f41d9e349393c9b8621,Form,22,0,nst,NULL,NST_1b_chosen,no
1524341942,61b2cc81bce47f41d9e349393c9b8621,Form,22,0,nst,NULL,NST_1c_chosen,no
1524341942,61b2cc81bce47f41d9e349393c9b8621,Form,22,0,nst,NULL,NST_1d_chosen,yes
1524341942,61b2cc81bce47f41d9e349393c9b8621,Form,22,0,nst,NULL,_REACTION_TIME_,18190
1524341942,61b2cc81bce47f41d9e349393c9b8621,Form,20,0,control,NULL,when_A_chosen,no
1524341942,61b2cc81bce47f41d9e349393c9b8621,Form,20,0,control,NULL,when_B_chosen,no
1524341942,61b2cc81bce47f41d9e349393c9b8621,Form,20,0,control,NULL,when_C_chosen,yes
1524341942,61b2cc81bce47f41d9e349393c9b8621,Form,20,0,control,NULL,none_chosen,no
1524341942,61b2cc81bce47f41d9e349393c9b8621,Form,20,0,control,NULL,_REACTION_TIME_,29816
1524341942,61b2cc81bce47f41d9e349393c9b8621,Form,14,0,low,NULL,answers_reported,placeholderFriend 1 says%2C "Diners C%2C F%2C A%2C D%2C and E."%2CFriend 2 says%2C "Diner C."%2CFriend 3 says%2C "Diners A and E."
1524341942,61b2cc81bce47f41d9e349393c9b8621,Form,14,0,low,NULL,la_friend_A_chosen,yes
1524341942,61b2cc81bce47f41d9e349393c9b8621,Form,14,0,low,NULL,la_friend_B_chosen,no
1524341942,61b2cc81bce47f41d9e349393c9b8621,Form,14,0,low,NULL,la_friend_C_chosen,no
1524341942,61b2cc81bce47f41d9e349393c9b8621,Form,14,0,low,NULL,no_one_chosen,no
1524341942,61b2cc81bce47f41d9e349393c9b8621,Form,14,0,low,NULL,_REACTION_TIME_,18971
1524341942,61b2cc81bce47f41d9e349393c9b8621,Form,12,0,high,NULL,answers_reported,placeholderInvestigator 1 says%2C "Place F."%2CInvestigator 2 says%2C "Places B and E."%2CInvestigator 3 says%2C "Place E."
1524341942,61b2cc81bce47f41d9e349393c9b8621,Form,12,0,high,NULL,fbi_investigator_A_chosen,no
1524341942,61b2cc81bce47f41d9e349393c9b8621,Form,12,0,high,NULL,fbi_investigator_B_chosen,no
1524341942,61b2cc81bce47f41d9e349393c9b8621,Form,12,0,high,NULL,fbi_investigator_C_chosen,no
1524341942,61b2cc81bce47f41d9e349393c9b8621,Form,12,0,high,NULL,no_one_chosen,yes
1524341942,61b2cc81bce47f41d9e349393c9b8621,Form,12,0,high,NULL,_REACTION_TIME_,13139
1524341942,61b2cc81bce47f41d9e349393c9b8621,Form,15,0,low,NULL,answers_reported,placeholderClassmate 1 says%2C "Cafe E."%2CClassmate 2 says%2C "Cafes E and B."%2CClassmate 3 says%2C "Cafes F and D."
1524341942,61b2cc81bce47f41d9e349393c9b8621,Form,15,0,low,NULL,coffee_classmate_A_chosen,no
1524341942,61b2cc81bce47f41d9e349393c9b8621,Form,15,0,low,NULL,coffee_classmate_B_chosen,no
1524341942,61b2cc81bce47f41d9e349393c9b8621,Form,15,0,low,NULL,coffee_classmate_C_chosen,no
1524341942,61b2cc81bce47f41d9e349393c9b8621,Form,15,0,low,NULL,no_one_chosen,yes
1524341942,61b2cc81bce47f41d9e349393c9b8621,Form,15,0,low,NULL,_REACTION_TIME_,42006
1524341942,61b2cc81bce47f41d9e349393c9b8621,Form,25,0,nst,NULL,NST_4a_chosen,no
1524341942,61b2cc81bce47f41d9e349393c9b8621,Form,25,0,nst,NULL,NST_4b_chosen,yes
1524341942,61b2cc81bce47f41d9e349393c9b8621,Form,25,0,nst,NULL,_REACTION_TIME_,8173
1524341942,61b2cc81bce47f41d9e349393c9b8621,Form,21,0,control,NULL,how_guest_A_chosen,no
1524341942,61b2cc81bce47f41d9e349393c9b8621,Form,21,0,control,NULL,how_guest_B_chosen,yes
1524341942,61b2cc81bce47f41d9e349393c9b8621,Form,21,0,control,NULL,how_guest_C_chosen,yes
1524341942,61b2cc81bce47f41d9e349393c9b8621,Form,21,0,control,NULL,none_chosen,no
1524341942,61b2cc81bce47f41d9e349393c9b8621,Form,21,0,control,NULL,_REACTION_TIME_,30884
1524341942,61b2cc81bce47f41d9e349393c9b8621,Form,11,0,high,NULL,answers_reported,placeholderAdviser 1 says%2C "Stores E and B."%2CAdviser 2 says%2C "Stores A and F."%2CAdviser 3 says%2C "Stores E%2C B%2C A%2C D%2C and F."
1524341942,61b2cc81bce47f41d9e349393c9b8621,Form,11,0,high,NULL,terrorism_advisor_A_chosen,no
1524341942,61b2cc81bce47f41d9e349393c9b8621,Form,11,0,high,NULL,terrorism_advisor_B_chosen,no
1524341942,61b2cc81bce47f41d9e349393c9b8621,Form,11,0,high,NULL,terrorism_advisor_C_chosen,yes
1524341942,61b2cc81bce47f41d9e349393c9b8621,Form,11,0,high,NULL,no_one_chosen,no
1524341942,61b2cc81bce47f41d9e349393c9b8621,Form,11,0,high,NULL,_REACTION_TIME_,12763
1524341942,61b2cc81bce47f41d9e349393c9b8621,Form,16,0,low,NULL,answers_reported,placeholderCoworker 1 says%2C "Studio B."%2CCoworker 2 says%2C "Studio F."%2CCoworker 3 says%2C "Studios F and E."
1524341942,61b2cc81bce47f41d9e349393c9b8621,Form,16,0,low,NULL,yoga_coworker_A_chosen,no
1524341942,61b2cc81bce47f41d9e349393c9b8621,Form,16,0,low,NULL,yoga_coworker_B_chosen,no
1524341942,61b2cc81bce47f41d9e349393c9b8621,Form,16,0,low,NULL,yoga_coworker_C_chosen,no
1524341942,61b2cc81bce47f41d9e349393c9b8621,Form,16,0,low,NULL,no_one_chosen,yes
1524341942,61b2cc81bce47f41d9e349393c9b8621,Form,16,0,low,NULL,_REACTION_TIME_,9865
1524341942,61b2cc81bce47f41d9e349393c9b8621,Form,9,0,high,NULL,answers_reported,placeholderFirefighter 1 says%2C "The fourth and sixth floors."%2CFirefighter 2 says%2C "The fifth%2C second%2C fourth%2C third and sixth floors."%2CFirefighter 3 says%2C "The sixth floor."
1524341942,61b2cc81bce47f41d9e349393c9b8621,Form,9,0,high,NULL,firefighter_A_chosen,no
1524341942,61b2cc81bce47f41d9e349393c9b8621,Form,9,0,high,NULL,firefighter_B_chosen,yes
1524341942,61b2cc81bce47f41d9e349393c9b8621,Form,9,0,high,NULL,firefighter_C_chosen,no
1524341942,61b2cc81bce47f41d9e349393c9b8621,Form,9,0,high,NULL,no_one_chosen,no
1524341942,61b2cc81bce47f41d9e349393c9b8621,Form,9,0,high,NULL,_REACTION_TIME_,29391
1524341942,61b2cc81bce47f41d9e349393c9b8621,Form,23,0,nst,NULL,NST_2a_chosen,no
1524341942,61b2cc81bce47f41d9e349393c9b8621,Form,23,0,nst,NULL,NST_2b_chosen,yes
1524341942,61b2cc81bce47f41d9e349393c9b8621,Form,23,0,nst,NULL,NST_2c_chosen,no
1524341942,61b2cc81bce47f41d9e349393c9b8621,Form,23,0,nst,NULL,NST_2d_chosen,no
1524341942,61b2cc81bce47f41d9e349393c9b8621,Form,23,0,nst,NULL,NST_2e_chosen,no
1524341942,61b2cc81bce47f41d9e349393c9b8621,Form,23,0,nst,NULL,_REACTION_TIME_,32713
1524341942,61b2cc81bce47f41d9e349393c9b8621,Form,19,0,control,NULL,what_A_chosen,yes
1524341942,61b2cc81bce47f41d9e349393c9b8621,Form,19,0,control,NULL,what_B_chosen,yes
1524341942,61b2cc81bce47f41d9e349393c9b8621,Form,19,0,control,NULL,what_C_chosen,no
1524341942,61b2cc81bce47f41d9e349393c9b8621,Form,19,0,control,NULL,none_chosen,no
1524341942,61b2cc81bce47f41d9e349393c9b8621,Form,19,0,control,NULL,_REACTION_TIME_,33142
1524341942,61b2cc81bce47f41d9e349393c9b8621,Form,6,0,exit_quest,NULL,know_conditons,He found the coffee in the pantry.
1524341942,61b2cc81bce47f41d9e349393c9b8621,Form,6,0,exit_quest,NULL,know_conditons,John can find the coffee in the pantry.
1524341942,61b2cc81bce47f41d9e349393c9b8621,Form,6,0,exit_quest,NULL,difficult,It was not too difficult
1524341942,61b2cc81bce47f41d9e349393c9b8621,Form,6,0,exit_quest,NULL,anything_else,No%2C everything was straightforward.
1524341942,61b2cc81bce47f41d9e349393c9b8621,Form,6,0,exit_quest,NULL,dummy_checkbox_,yes
1524341942,61b2cc81bce47f41d9e349393c9b8621,Form,6,0,exit_quest,NULL,_REACTION_TIME_,46591
#
# Results on Saturday April 21 2018 20:19:50 UTC.
# USER AGENT: Mozilla/5.0 (Macintosh; Intel Mac OS X 10_12_6) AppleWebKit/537.36 (KHTML, like Gecko) Chrome/66.0.3359.117 Safari/537.36
# Design number was non-random = 4
#
# Columns below this comment are as follows:
# 1. Time results were received.
# 2. MD5 hash of participant's IP address.
# 3. Controller name.
# 4. Item number.
# 5. Element number.
# 6. Type.
# 7. Group.
# 8. Field name.
# 9. Field value.
1524341990,21eda13e67606adc0681164519879582,Form,2,0,consent,NULL,subject_id,A1HIQZEC2ER7GS
1524341990,21eda13e67606adc0681164519879582,Form,2,0,consent,NULL,native_lang,ENGLISH
1524341990,21eda13e67606adc0681164519879582,Form,2,0,consent,NULL,age,29
1524341990,21eda13e67606adc0681164519879582,Form,2,0,consent,NULL,consent_checkbox_,yes
1524341990,21eda13e67606adc0681164519879582,Form,2,0,consent,NULL,dummy_checkbox_,yes
1524341990,21eda13e67606adc0681164519879582,Form,2,0,consent,NULL,sex,male
1524341990,21eda13e67606adc0681164519879582,Form,2,0,consent,NULL,_REACTION_TIME_,15699
1524341990,21eda13e67606adc0681164519879582,Form,1,0,instructions,NULL,dummy_checkbox_,yes
1524341990,21eda13e67606adc0681164519879582,Form,1,0,instructions,NULL,_REACTION_TIME_,12252
1524341990,21eda13e67606adc0681164519879582,Form,3,0,train,NULL,train_f_A_chosen,no
1524341990,21eda13e67606adc0681164519879582,Form,3,0,train,NULL,train_f_B_chosen,no
1524341990,21eda13e67606adc0681164519879582,Form,3,0,train,NULL,train_f_C_chosen,no
1524341990,21eda13e67606adc0681164519879582,Form,3,0,train,NULL,none_chosen,yes
1524341990,21eda13e67606adc0681164519879582,Form,3,0,train,NULL,_REACTION_TIME_,46364
1524341990,21eda13e67606adc0681164519879582,Form,4,0,train,NULL,train_m_A_chosen,no
1524341990,21eda13e67606adc0681164519879582,Form,4,0,train,NULL,train_m_B_chosen,no
1524341990,21eda13e67606adc0681164519879582,Form,4,0,train,NULL,train_m_C_chosen,yes
1524341990,21eda13e67606adc0681164519879582,Form,4,0,train,NULL,none_chosen,no
1524341990,21eda13e67606adc0681164519879582,Form,4,0,train,NULL,_REACTION_TIME_,48947
1524341990,21eda13e67606adc0681164519879582,Form,5,0,train_end,NULL,dummy_checkbox_,yes
1524341990,21eda13e67606adc0681164519879582,Form,5,0,train_end,NULL,_REACTION_TIME_,1852
1524341990,21eda13e67606adc0681164519879582,Form,16,0,low,NULL,answers_reported,placeholderCoworker 1 says%2C "Studios C and B."%2CCoworker 2 says%2C "Studios F and E."%2CCoworker 3 says%2C "Studio B."
1524341990,21eda13e67606adc0681164519879582,Form,16,0,low,NULL,yoga_coworker_A_chosen,yes
1524341990,21eda13e67606adc0681164519879582,Form,16,0,low,NULL,yoga_coworker_B_chosen,yes
1524341990,21eda13e67606adc0681164519879582,Form,16,0,low,NULL,yoga_coworker_C_chosen,yes
1524341990,21eda13e67606adc0681164519879582,Form,16,0,low,NULL,no_one_chosen,no
1524341990,21eda13e67606adc0681164519879582,Form,16,0,low,NULL,_REACTION_TIME_,24711
1524341990,21eda13e67606adc0681164519879582,Form,10,0,high,NULL,answers_reported,placeholderOperative 1 says%2C "The South and North districts."%2COperative 2 says%2C "The West district."%2COperative 3 says%2C "The North district."
1524341990,21eda13e67606adc0681164519879582,Form,10,0,high,NULL,operative_A_chosen,yes
1524341990,21eda13e67606adc0681164519879582,Form,10,0,high,NULL,operative_B_chosen,yes
1524341990,21eda13e67606adc0681164519879582,Form,10,0,high,NULL,operative_C_chosen,yes
1524341990,21eda13e67606adc0681164519879582,Form,10,0,high,NULL,no_one_chosen,no
1524341990,21eda13e67606adc0681164519879582,Form,10,0,high,NULL,_REACTION_TIME_,24602
1524341990,21eda13e67606adc0681164519879582,Form,14,0,low,NULL,answers_reported,placeholderFriend 1 says%2C "Diner B."%2CFriend 2 says%2C "Diner C."%2CFriend 3 says%2C "Diners A and E."
1524341990,21eda13e67606adc0681164519879582,Form,14,0,low,NULL,la_friend_A_chosen,no
1524341990,21eda13e67606adc0681164519879582,Form,14,0,low,NULL,la_friend_B_chosen,yes
1524341990,21eda13e67606adc0681164519879582,Form,14,0,low,NULL,la_friend_C_chosen,no
1524341990,21eda13e67606adc0681164519879582,Form,14,0,low,NULL,no_one_chosen,no
1524341990,21eda13e67606adc0681164519879582,Form,14,0,low,NULL,_REACTION_TIME_,2796
1524341990,21eda13e67606adc0681164519879582,Form,24,0,nst,NULL,NST_3a_chosen,yes
1524341990,21eda13e67606adc0681164519879582,Form,24,0,nst,NULL,NST_3b_chosen,no
1524341990,21eda13e67606adc0681164519879582,Form,24,0,nst,NULL,NST_3c_chosen,no
1524341990,21eda13e67606adc0681164519879582,Form,24,0,nst,NULL,NST_3d_chosen,no
1524341990,21eda13e67606adc0681164519879582,Form,24,0,nst,NULL,NST_3e_chosen,no
1524341990,21eda13e67606adc0681164519879582,Form,24,0,nst,NULL,_REACTION_TIME_,3727
1524341990,21eda13e67606adc0681164519879582,Form,19,0,control,NULL,what_A_chosen,no
1524341990,21eda13e67606adc0681164519879582,Form,19,0,control,NULL,what_B_chosen,yes
1524341990,21eda13e67606adc0681164519879582,Form,19,0,control,NULL,what_C_chosen,no
1524341990,21eda13e67606adc0681164519879582,Form,19,0,control,NULL,none_chosen,no
1524341990,21eda13e67606adc0681164519879582,Form,19,0,control,NULL,_REACTION_TIME_,2469
1524341990,21eda13e67606adc0681164519879582,Form,8,0,high,NULL,answers_reported,placeholderInspector 1 says%2C "Restaurants A and B."%2CInspector 2 says%2C "Restaurant A."%2CInspector 3 says%2C "Restaurant E."
1524341990,21eda13e67606adc0681164519879582,Form,8,0,high,NULL,inspector_A_chosen,no
1524341990,21eda13e67606adc0681164519879582,Form,8,0,high,NULL,inspector_B_chosen,yes
1524341990,21eda13e67606adc0681164519879582,Form,8,0,high,NULL,inspector_C_chosen,no
1524341990,21eda13e67606adc0681164519879582,Form,8,0,high,NULL,no_one_chosen,no
1524341990,21eda13e67606adc0681164519879582,Form,8,0,high,NULL,_REACTION_TIME_,2673
1524341990,21eda13e67606adc0681164519879582,Form,17,0,low,NULL,answers_reported,placeholderBrother 1 says%2C "Stalls A and B."%2CBrother 2 says%2C "Stall C."%2CBrother 3 says%2C "Stalls C and D."
1524341990,21eda13e67606adc0681164519879582,Form,17,0,low,NULL,brother_A_chosen,no
1524341990,21eda13e67606adc0681164519879582,Form,17,0,low,NULL,brother_B_chosen,yes
1524341990,21eda13e67606adc0681164519879582,Form,17,0,low,NULL,brother_C_chosen,no
1524341990,21eda13e67606adc0681164519879582,Form,17,0,low,NULL,no_one_chosen,no
1524341990,21eda13e67606adc0681164519879582,Form,17,0,low,NULL,_REACTION_TIME_,2134
1524341990,21eda13e67606adc0681164519879582,Form,22,0,nst,NULL,NST_1a_chosen,yes
1524341990,21eda13e67606adc0681164519879582,Form,22,0,nst,NULL,NST_1b_chosen,no
1524341990,21eda13e67606adc0681164519879582,Form,22,0,nst,NULL,NST_1c_chosen,no
1524341990,21eda13e67606adc0681164519879582,Form,22,0,nst,NULL,NST_1d_chosen,no
1524341990,21eda13e67606adc0681164519879582,Form,22,0,nst,NULL,_REACTION_TIME_,3024
1524341990,21eda13e67606adc0681164519879582,Form,21,0,control,NULL,how_guest_A_chosen,no
1524341990,21eda13e67606adc0681164519879582,Form,21,0,control,NULL,how_guest_B_chosen,yes
1524341990,21eda13e67606adc0681164519879582,Form,21,0,control,NULL,how_guest_C_chosen,no
1524341990,21eda13e67606adc0681164519879582,Form,21,0,control,NULL,none_chosen,no
1524341990,21eda13e67606adc0681164519879582,Form,21,0,control,NULL,_REACTION_TIME_,3361
1524341990,21eda13e67606adc0681164519879582,Form,9,0,high,NULL,answers_reported,placeholderFirefighter 1 says%2C "The sixth floor."%2CFirefighter 2 says%2C "The first floor."%2CFirefighter 3 says%2C "The fourth and sixth floors."
1524341990,21eda13e67606adc0681164519879582,Form,9,0,high,NULL,firefighter_A_chosen,no
1524341990,21eda13e67606adc0681164519879582,Form,9,0,high,NULL,firefighter_B_chosen,yes
1524341990,21eda13e67606adc0681164519879582,Form,9,0,high,NULL,firefighter_C_chosen,no
1524341990,21eda13e67606adc0681164519879582,Form,9,0,high,NULL,no_one_chosen,no
1524341990,21eda13e67606adc0681164519879582,Form,9,0,high,NULL,_REACTION_TIME_,2537
1524341990,21eda13e67606adc0681164519879582,Form,13,0,low,NULL,answers_reported,placeholderCousin 1 says%2C "Locations D and F."%2CCousin 2 says%2C "Location B."%2CCousin 3 says%2C "Location A."
1524341990,21eda13e67606adc0681164519879582,Form,13,0,low,NULL,pic_cousin_A_chosen,no
1524341990,21eda13e67606adc0681164519879582,Form,13,0,low,NULL,pic_cousin_B_chosen,no
1524341990,21eda13e67606adc0681164519879582,Form,13,0,low,NULL,pic_cousin_C_chosen,no
1524341990,21eda13e67606adc0681164519879582,Form,13,0,low,NULL,no_one_chosen,no
1524341990,21eda13e67606adc0681164519879582,Form,13,0,low,NULL,_REACTION_TIME_,1294
1524341990,21eda13e67606adc0681164519879582,Form,12,0,high,NULL,answers_reported,placeholderInvestigator 1 says%2C "Place E."%2CInvestigator 2 says%2C "Places F and A."%2CInvestigator 3 says%2C "Place F."
1524341990,21eda13e67606adc0681164519879582,Form,12,0,high,NULL,fbi_investigator_A_chosen,no
1524341990,21eda13e67606adc0681164519879582,Form,12,0,high,NULL,fbi_investigator_B_chosen,yes
1524341990,21eda13e67606adc0681164519879582,Form,12,0,high,NULL,fbi_investigator_C_chosen,no
1524341990,21eda13e67606adc0681164519879582,Form,12,0,high,NULL,no_one_chosen,no
1524341990,21eda13e67606adc0681164519879582,Form,12,0,high,NULL,_REACTION_TIME_,3442
1524341990,21eda13e67606adc0681164519879582,Form,23,0,nst,NULL,NST_2a_chosen,no
1524341990,21eda13e67606adc0681164519879582,Form,23,0,nst,NULL,NST_2b_chosen,no
1524341990,21eda13e67606adc0681164519879582,Form,23,0,nst,NULL,NST_2c_chosen,no
1524341990,21eda13e67606adc0681164519879582,Form,23,0,nst,NULL,NST_2d_chosen,no
1524341990,21eda13e67606adc0681164519879582,Form,23,0,nst,NULL,NST_2e_chosen,yes
1524341990,21eda13e67606adc0681164519879582,Form,23,0,nst,NULL,_REACTION_TIME_,2165
1524341990,21eda13e67606adc0681164519879582,Form,18,0,control,NULL,why_A_chosen,no
1524341990,21eda13e67606adc0681164519879582,Form,18,0,control,NULL,why_B_chosen,yes
1524341990,21eda13e67606adc0681164519879582,Form,18,0,control,NULL,why_C_chosen,no
1524341990,21eda13e67606adc0681164519879582,Form,18,0,control,NULL,none_chosen,no
1524341990,21eda13e67606adc0681164519879582,Form,18,0,control,NULL,_REACTION_TIME_,2404
1524341990,21eda13e67606adc0681164519879582,Form,15,0,low,NULL,answers_reported,placeholderClassmate 1 says%2C "Cafe D."%2CClassmate 2 says%2C "Cafes F and D."%2CClassmate 3 says%2C "Cafe E."
1524341990,21eda13e67606adc0681164519879582,Form,15,0,low,NULL,coffee_classmate_A_chosen,no
1524341990,21eda13e67606adc0681164519879582,Form,15,0,low,NULL,coffee_classmate_B_chosen,yes
1524341990,21eda13e67606adc0681164519879582,Form,15,0,low,NULL,coffee_classmate_C_chosen,no
1524341990,21eda13e67606adc0681164519879582,Form,15,0,low,NULL,no_one_chosen,no
1524341990,21eda13e67606adc0681164519879582,Form,15,0,low,NULL,_REACTION_TIME_,2570
1524341990,21eda13e67606adc0681164519879582,Form,11,0,high,NULL,answers_reported,placeholderAdviser 1 says%2C "Stores A and F."%2CAdviser 2 says%2C "Store C."%2CAdviser 3 says%2C "Store F."
1524341990,21eda13e67606adc0681164519879582,Form,11,0,high,NULL,terrorism_advisor_A_chosen,no
1524341990,21eda13e67606adc0681164519879582,Form,11,0,high,NULL,terrorism_advisor_B_chosen,yes
1524341990,21eda13e67606adc0681164519879582,Form,11,0,high,NULL,terrorism_advisor_C_chosen,no
1524341990,21eda13e67606adc0681164519879582,Form,11,0,high,NULL,no_one_chosen,no
1524341990,21eda13e67606adc0681164519879582,Form,11,0,high,NULL,_REACTION_TIME_,2089
1524341990,21eda13e67606adc0681164519879582,Form,25,0,nst,NULL,NST_4a_chosen,no
1524341990,21eda13e67606adc0681164519879582,Form,25,0,nst,NULL,NST_4b_chosen,yes
